"trial","choice","feedback","left_stimulus","right_stimulus","left_option","right_option","rt","trial_type","trial_index","time_elapsed","internal_node_id","participant","condition"
"1","safe","49","red-191","blue-76","safe","risky","1543","bandit-task","7","237231","0.0-3.0-0.0","116","high"
"2","safe","50","red-90","blue-116","safe","risky","806","bandit-task","8","240535","0.0-3.0-0.1","116","high"
"3","risky","82","red-193","blue-208","safe","risky","846","bandit-task","9","243959","0.0-3.0-0.2","116","high"
"4","safe","51","red-196","blue-95","safe","risky","766","bandit-task","10","247327","0.0-3.0-0.3","116","high"
"5","safe","51","red-102","blue-215","safe","risky","614","bandit-task","11","250343","0.0-3.0-0.4","116","high"
"6","risky","49","red-195","blue-92","safe","risky","734","bandit-task","12","253607","0.0-3.0-0.5","116","high"
"7","safe","49","red-53","blue-151","safe","risky","438","bandit-task","13","256471","0.0-3.0-0.6","116","high"
"8","risky","59","red-154","blue-219","safe","risky","486","bandit-task","14","259583","0.0-3.0-0.7","116","high"
"9","risky","68","red-23","blue-166","safe","risky","430","bandit-task","15","262535","0.0-3.0-0.8","116","high"
"10","safe","50","red-4","blue-204","safe","risky","630","bandit-task","16","265535","0.0-3.0-0.9","116","high"
"11","safe","51","red-147","blue-83","safe","risky","382","bandit-task","17","268319","0.0-3.0-0.10","116","high"
"12","risky","41","red-104","blue-139","safe","risky","390","bandit-task","18","271119","0.0-3.0-0.11","116","high"
"13","risky","59","red-57","blue-70","safe","risky","326","bandit-task","19","273983","0.0-3.0-0.12","116","high"
"14","risky","30","red-181","blue-159","safe","risky","366","bandit-task","20","276839","0.0-3.0-0.13","116","high"
"15","risky","84","red-186","blue-1","safe","risky","358","bandit-task","21","279575","0.0-3.0-0.14","116","high"
"16","safe","51","red-27","blue-30","safe","risky","435","bandit-task","22","282604","0.0-3.0-0.15","116","high"
"17","safe","49","red-156","blue-158","safe","risky","422","bandit-task","23","285556","0.0-3.0-0.16","116","high"
"18","safe","50","red-150","blue-21","safe","risky","382","bandit-task","24","288364","0.0-3.0-0.17","116","high"
"19","safe","50","red-52","blue-85","safe","risky","333","bandit-task","25","291452","0.0-3.0-0.18","116","high"
"20","safe","51","red-122","blue-220","safe","risky","317","bandit-task","26","294124","0.0-3.0-0.19","116","high"
"21","safe","50","red-58","blue-205","safe","risky","326","bandit-task","27","296804","0.0-3.0-0.20","116","high"
"22","safe","51","red-42","blue-197","safe","risky","326","bandit-task","28","299484","0.0-3.0-0.21","116","high"
"23","risky","29","red-152","blue-173","safe","risky","358","bandit-task","29","302557","0.0-3.0-0.22","116","high"
"24","safe","51","red-183","blue-120","safe","risky","382","bandit-task","30","305324","0.0-3.0-0.23","116","high"
"25","safe","51","red-5","blue-210","safe","risky","422","bandit-task","31","308300","0.0-3.0-0.24","116","high"
"26","safe","51","red-212","blue-178","safe","risky","1141","bandit-task","32","311812","0.0-3.0-0.25","116","high"
"27","safe","50","red-47","blue-28","safe","risky","390","bandit-task","33","314572","0.0-3.0-0.26","116","high"
"28","risky","56","red-48","blue-45","safe","risky","526","bandit-task","34","317484","0.0-3.0-0.27","116","high"
"29","risky","64","red-68","blue-98","safe","risky","382","bandit-task","35","320260","0.0-3.0-0.28","116","high"
"30","safe","49","red-127","blue-94","safe","risky","518","bandit-task","36","323316","0.0-3.0-0.29","116","high"
"31","risky","38","red-72","blue-17","safe","risky","398","bandit-task","37","326100","0.0-3.0-0.30","116","high"
"32","risky","33","red-8","blue-121","safe","risky","358","bandit-task","38","329236","0.0-3.0-0.31","116","high"
"33","risky","63","red-155","blue-22","safe","risky","373","bandit-task","39","332076","0.0-3.0-0.32","116","high"
"34","risky","77","red-96","blue-73","safe","risky","366","bandit-task","40","334812","0.0-3.0-0.33","116","high"
"35","safe","51","red-117","blue-19","safe","risky","758","bandit-task","41","337916","0.0-3.0-0.34","116","high"
"36","risky","36","red-101","blue-59","safe","risky","334","bandit-task","42","340795","0.0-3.0-0.35","116","high"
"37","risky","67","red-107","blue-12","safe","risky","398","bandit-task","43","343595","0.0-3.0-0.36","116","high"
"38","risky","22","red-164","blue-20","safe","risky","502","bandit-task","44","346476","0.0-3.0-0.37","116","high"
"39","safe","52","red-142","blue-180","safe","risky","381","bandit-task","45","349219","0.0-3.0-0.38","116","high"
"40","safe","51","red-33","blue-111","safe","risky","358","bandit-task","46","351931","0.0-3.0-0.39","116","high"
"41","risky","81","red-211","blue-214","safe","risky","358","bandit-task","47","354811","0.0-3.0-0.40","116","high"
"42","risky","78","red-91","blue-74","safe","risky","373","bandit-task","48","358739","0.0-3.0-0.41","116","high"
"43","risky","27","red-113","blue-167","safe","risky","343","bandit-task","49","361459","0.0-3.0-0.42","116","high"
"44","risky","19","red-206","blue-31","safe","risky","350","bandit-task","50","364395","0.0-3.0-0.43","116","high"
"45","risky","69","red-81","blue-66","safe","risky","382","bandit-task","51","367603","0.0-3.0-0.44","116","high"
"46","risky","33","red-177","blue-163","safe","risky","398","bandit-task","52","370411","0.0-3.0-0.45","116","high"
"47","risky","87","red-157","blue-41","safe","risky","366","bandit-task","53","373187","0.0-3.0-0.46","116","high"
"48","safe","49","red-201","blue-135","safe","risky","566","bandit-task","54","376355","0.0-3.0-0.47","116","high"
"49","safe","51","red-88","blue-170","safe","risky","333","bandit-task","55","379179","0.0-3.0-0.48","116","high"
"50","safe","49","red-77","blue-149","safe","risky","366","bandit-task","56","382051","0.0-3.0-0.49","116","high"
"51","safe","50","red-176","blue-140","safe","risky","350","bandit-task","57","384939","0.0-3.0-0.50","116","high"
"52","safe","49","red-65","blue-7","safe","risky","341","bandit-task","58","387803","0.0-3.0-0.51","116","high"
"53","safe","50","red-80","blue-160","safe","risky","374","bandit-task","59","390595","0.0-3.0-0.52","116","high"
"54","safe","50","red-198","blue-6","safe","risky","398","bandit-task","60","393659","0.0-3.0-0.53","116","high"
"55","safe","50","red-194","blue-29","safe","risky","302","bandit-task","61","396891","0.0-3.0-0.54","116","high"
"56","safe","52","red-9","blue-130","safe","risky","325","bandit-task","62","399723","0.0-3.0-0.55","116","high"
"57","risky","56","red-25","blue-179","safe","risky","390","bandit-task","63","402488","0.0-3.0-0.56","116","high"
"58","risky","68","red-188","blue-169","safe","risky","319","bandit-task","64","405184","0.0-3.0-0.57","116","high"
"59","safe","49","red-119","blue-71","safe","risky","415","bandit-task","65","407984","0.0-3.0-0.58","116","high"
"60","safe","50","red-124","blue-37","safe","risky","374","bandit-task","66","410728","0.0-3.0-0.59","116","high"
"61","safe","51","red-132","blue-103","safe","risky","335","bandit-task","67","413665","0.0-3.0-0.60","116","high"
"62","risky","62","red-40","blue-69","safe","risky","390","bandit-task","68","416585","0.0-3.0-0.61","116","high"
"63","risky","86","red-175","blue-50","safe","risky","390","bandit-task","69","419392","0.0-3.0-0.62","116","high"
"64","risky","85","red-171","blue-100","safe","risky","342","bandit-task","70","422857","0.0-3.0-0.63","116","high"
"65","risky","69","red-182","blue-62","safe","risky","390","bandit-task","71","425665","0.0-3.0-0.64","116","high"
"66","risky","42","red-168","blue-222","safe","risky","366","bandit-task","72","428400","0.0-3.0-0.65","116","high"
"67","safe","53","red-172","blue-99","safe","risky","382","bandit-task","73","431128","0.0-3.0-0.66","116","high"
"68","safe","50","red-217","blue-38","safe","risky","318","bandit-task","74","434040","0.0-3.0-0.67","116","high"
"69","risky","31","red-63","blue-199","safe","risky","343","bandit-task","75","436896","0.0-3.0-0.68","116","high"
"70","safe","50","red-18","blue-15","safe","risky","550","bandit-task","76","439824","0.0-3.0-0.69","116","high"
"71","safe","49","red-44","blue-143","safe","risky","374","bandit-task","77","442592","0.0-3.0-0.70","116","high"
"72","risky","40","red-49","blue-32","safe","risky","375","bandit-task","78","445472","0.0-3.0-0.71","116","high"
"73","risky","25","red-55","blue-187","safe","risky","334","bandit-task","79","448168","0.0-3.0-0.72","116","high"
"74","risky","59","red-128","blue-75","safe","risky","302","bandit-task","80","450808","0.0-3.0-0.73","116","high"
"75","risky","28","red-207","blue-209","safe","risky","319","bandit-task","81","454088","0.0-3.0-0.74","116","high"
"76","risky","53","red-93","blue-24","safe","risky","350","bandit-task","82","456768","0.0-3.0-0.75","116","high"
"77","risky","80","red-184","blue-165","safe","risky","326","bandit-task","83","459552","0.0-3.0-0.76","116","high"
"78","safe","50","red-61","blue-190","safe","risky","407","bandit-task","84","462336","0.0-3.0-0.77","116","high"
"79","safe","51","red-126","blue-109","safe","risky","377","bandit-task","85","465386","0.0-3.0-0.78","116","high"
"80","safe","52","red-84","blue-89","safe","risky","334","bandit-task","86","468083","0.0-3.0-0.79","116","high"
"81","safe","51","red-64","blue-36","safe","risky","358","bandit-task","87","470875","0.0-3.0-0.80","116","high"
"82","safe","51","red-78","blue-86","safe","risky","334","bandit-task","88","473947","0.0-3.0-0.81","116","high"
"83","safe","48","red-161","blue-141","safe","risky","357","bandit-task","89","476659","0.0-3.0-0.82","116","high"
"84","safe","50","red-185","blue-105","safe","risky","366","bandit-task","90","479459","0.0-3.0-0.83","116","high"
"85","risky","34","red-134","blue-11","safe","risky","350","bandit-task","91","482434","0.0-3.0-0.84","116","high"
"86","risky","50","red-43","blue-115","safe","risky","366","bandit-task","92","485235","0.0-3.0-0.85","116","high"
"87","risky","22","red-125","blue-203","safe","risky","326","bandit-task","93","488107","0.0-3.0-0.86","116","high"
"88","risky","53","red-218","blue-110","safe","risky","342","bandit-task","94","490947","0.0-3.0-0.87","116","high"
"89","risky","31","red-82","blue-10","safe","risky","302","bandit-task","95","493586","0.0-3.0-0.88","116","high"
"90","risky","64","red-192","blue-144","safe","risky","342","bandit-task","96","496378","0.0-3.0-0.89","116","high"
"91","risky","68","red-145","blue-153","safe","risky","390","bandit-task","97","499106","0.0-3.0-0.90","116","high"
"92","risky","67","red-213","blue-123","safe","risky","310","bandit-task","98","501939","0.0-3.0-0.91","116","high"
"93","risky","15","red-46","blue-216","safe","risky","350","bandit-task","99","504682","0.0-3.0-0.92","116","high"
"94","risky","75","red-51","blue-129","safe","risky","326","bandit-task","100","507474","0.0-3.0-0.93","116","high"
"95","risky","59","red-131","blue-2","safe","risky","294","bandit-task","101","510154","0.0-3.0-0.94","116","high"
"96","safe","51","red-26","blue-13","safe","risky","350","bandit-task","102","512874","0.0-3.0-0.95","116","high"
"97","risky","62","red-108","blue-114","safe","risky","334","bandit-task","103","515658","0.0-3.0-0.96","116","high"
"98","risky","67","red-54","blue-34","safe","risky","318","bandit-task","104","518594","0.0-3.0-0.97","116","high"
"99","risky","47","red-137","blue-202","safe","risky","334","bandit-task","105","521427","0.0-3.0-0.98","116","high"
"100","risky","29","red-79","blue-200","safe","risky","318","bandit-task","106","524163","0.0-3.0-0.99","116","high"
"101","risky","22","red-221","blue-67","safe","risky","341","bandit-task","107","527019","0.0-3.0-0.100","116","high"
"102","risky","23","red-16","blue-136","safe","risky","310","bandit-task","108","530003","0.0-3.0-0.101","116","high"
"103","risky","84","red-60","blue-189","safe","risky","340","bandit-task","109","532779","0.0-3.0-0.102","116","high"
"104","risky","64","red-14","blue-87","safe","risky","381","bandit-task","110","535515","0.0-3.0-0.103","116","high"
"105","risky","22","red-162","blue-148","safe","risky","294","bandit-task","111","538147","0.0-3.0-0.104","116","high"
"106","risky","30","red-3","blue-112","safe","risky","318","bandit-task","112","540915","0.0-3.0-0.105","116","high"
"107","risky","40","red-174","blue-146","safe","risky","366","bandit-task","113","543723","0.0-3.0-0.106","116","high"
"108","risky","83","red-133","blue-138","safe","risky","238","bandit-task","114","546523","0.0-3.0-0.107","116","high"
"109","safe","51","red-56","blue-106","safe","risky","430","bandit-task","115","549659","0.0-3.0-0.108","116","high"
"110","safe","50","red-118","blue-35","safe","risky","1238","bandit-task","116","553459","0.0-3.0-0.109","116","high"
