"trial","choice","feedback","left_stimulus","right_stimulus","left_option","right_option","rt","trial_type","trial_index","time_elapsed","internal_node_id","participant","condition"
"1","safe","50","red-47","blue-176","risky","safe","2724","bandit-task","10","294975","0.0-3.0-0.0","40","high"
"2","safe","51","red-156","blue-66","risky","safe","1558","bandit-task","11","299231","0.0-3.0-0.1","40","high"
"3","risky","68","red-128","blue-204","risky","safe","1662","bandit-task","12","303935","0.0-3.0-0.2","40","high"
"4","risky","23","red-201","blue-73","risky","safe","1894","bandit-task","13","308247","0.0-3.0-0.3","40","high"
"5","safe","50","red-69","blue-110","risky","safe","1414","bandit-task","14","312015","0.0-3.0-0.4","40","high"
"6","safe","50","red-115","blue-76","risky","safe","1934","bandit-task","15","316463","0.0-3.0-0.5","40","high"
"7","safe","50","red-143","blue-126","risky","safe","1271","bandit-task","16","320064","0.0-3.0-0.6","40","high"
"8","safe","48","red-179","blue-84","risky","safe","1342","bandit-task","17","323880","0.0-3.0-0.7","40","high"
"9","risky","48","red-18","blue-8","risky","safe","1238","bandit-task","18","327648","0.0-3.0-0.8","40","high"
"10","risky","62","red-216","blue-75","risky","safe","1790","bandit-task","19","332400","0.0-3.0-0.9","40","high"
"11","risky","72","red-174","blue-12","risky","safe","2118","bandit-task","20","337120","0.0-3.0-0.10","40","high"
"12","safe","50","red-170","blue-4","risky","safe","1622","bandit-task","21","341104","0.0-3.0-0.11","40","high"
"13","safe","50","red-187","blue-107","risky","safe","2231","bandit-task","22","345704","0.0-3.0-0.12","40","high"
"14","safe","51","red-133","blue-53","risky","safe","2014","bandit-task","23","350944","0.0-3.0-0.13","40","high"
"15","risky","18","red-68","blue-48","risky","safe","1654","bandit-task","24","355312","0.0-3.0-0.14","40","high"
"16","safe","50","red-79","blue-127","risky","safe","1102","bandit-task","25","358800","0.0-3.0-0.15","40","high"
"17","safe","50","red-146","blue-41","risky","safe","958","bandit-task","26","362096","0.0-3.0-0.16","40","high"
"18","risky","64","red-2","blue-219","risky","safe","750","bandit-task","27","365472","0.0-3.0-0.17","40","high"
"19","safe","49","red-218","blue-167","risky","safe","1446","bandit-task","28","369856","0.0-3.0-0.18","40","high"
"20","safe","49","red-42","blue-63","risky","safe","1853","bandit-task","29","374240","0.0-3.0-0.19","40","high"
"21","risky","64","red-215","blue-180","risky","safe","1574","bandit-task","30","378275","0.0-3.0-0.20","40","high"
"22","safe","51","red-72","blue-35","risky","safe","1246","bandit-task","31","382411","0.0-3.0-0.21","40","high"
"23","risky","67","red-181","blue-96","risky","safe","1454","bandit-task","32","386347","0.0-3.0-0.22","40","high"
"24","risky","73","red-172","blue-158","risky","safe","999","bandit-task","33","389715","0.0-3.0-0.23","40","high"
"25","safe","49","red-122","blue-177","risky","safe","831","bandit-task","34","395259","0.0-3.0-0.24","40","high"
"26","risky","47","red-203","blue-36","risky","safe","1478","bandit-task","35","399283","0.0-3.0-0.25","40","high"
"27","safe","50","red-189","blue-7","risky","safe","1213","bandit-task","36","402947","0.0-3.0-0.26","40","high"
"28","risky","79","red-147","blue-93","risky","safe","742","bandit-task","37","406115","0.0-3.0-0.27","40","high"
"29","safe","49","red-212","blue-71","risky","safe","1230","bandit-task","38","409700","0.0-3.0-0.28","40","high"
"30","risky","56","red-44","blue-91","risky","safe","710","bandit-task","39","413003","0.0-3.0-0.29","40","high"
"31","risky","90","red-20","blue-100","risky","safe","870","bandit-task","40","416339","0.0-3.0-0.30","40","high"
"32","safe","49","red-60","blue-220","risky","safe","2062","bandit-task","41","420771","0.0-3.0-0.31","40","high"
"33","risky","28","red-157","blue-16","risky","safe","1094","bandit-task","42","424443","0.0-3.0-0.32","40","high"
"34","risky","31","red-159","blue-94","risky","safe","1110","bandit-task","43","427955","0.0-3.0-0.33","40","high"
"35","risky","65","red-199","blue-205","risky","safe","1061","bandit-task","44","431515","0.0-3.0-0.34","40","high"
"36","safe","51","red-213","blue-23","risky","safe","1094","bandit-task","45","435899","0.0-3.0-0.35","40","high"
"37","risky","77","red-164","blue-148","risky","safe","1374","bandit-task","46","439833","0.0-3.0-0.36","40","high"
"38","risky","76","red-5","blue-10","risky","safe","1558","bandit-task","47","444576","0.0-3.0-0.37","40","high"
"39","risky","64","red-208","blue-152","risky","safe","1182","bandit-task","48","448329","0.0-3.0-0.38","40","high"
"40","risky","63","red-43","blue-194","risky","safe","958","bandit-task","49","451889","0.0-3.0-0.39","40","high"
"41","risky","72","red-30","blue-56","risky","safe","878","bandit-task","50","455201","0.0-3.0-0.40","40","high"
"42","risky","78","red-190","blue-142","risky","safe","1199","bandit-task","51","459065","0.0-3.0-0.41","40","high"
"43","safe","50","red-108","blue-103","risky","safe","1646","bandit-task","52","463753","0.0-3.0-0.42","40","high"
"44","risky","26","red-222","blue-104","risky","safe","918","bandit-task","53","467441","0.0-3.0-0.43","40","high"
"45","risky","20","red-191","blue-67","risky","safe","1198","bandit-task","54","471128","0.0-3.0-0.44","40","high"
"46","risky","18","red-14","blue-161","risky","safe","951","bandit-task","55","474448","0.0-3.0-0.45","40","high"
"47","risky","32","red-86","blue-25","risky","safe","967","bandit-task","56","478024","0.0-3.0-0.46","40","high"
"48","safe","50","red-92","blue-210","risky","safe","926","bandit-task","57","481352","0.0-3.0-0.47","40","high"
"49","safe","51","red-162","blue-24","risky","safe","2238","bandit-task","58","486104","0.0-3.0-0.48","40","high"
"50","safe","48","red-111","blue-74","risky","safe","1206","bandit-task","59","490072","0.0-3.0-0.49","40","high"
"51","safe","50","red-173","blue-106","risky","safe","1663","bandit-task","60","494088","0.0-3.0-0.50","40","high"
"52","risky","66","red-85","blue-119","risky","safe","1214","bandit-task","61","498064","0.0-3.0-0.51","40","high"
"53","safe","51","red-102","blue-141","risky","safe","1895","bandit-task","62","502745","0.0-3.0-0.52","40","high"
"54","risky","71","red-77","blue-153","risky","safe","1478","bandit-task","63","506817","0.0-3.0-0.53","40","high"
"55","risky","48","red-89","blue-45","risky","safe","974","bandit-task","64","510185","0.0-3.0-0.54","40","high"
"56","safe","51","red-193","blue-28","risky","safe","2087","bandit-task","65","514648","0.0-3.0-0.55","40","high"
"57","safe","51","red-207","blue-163","risky","safe","1950","bandit-task","66","519553","0.0-3.0-0.56","40","high"
"58","risky","31","red-105","blue-171","risky","safe","1518","bandit-task","67","523545","0.0-3.0-0.57","40","high"
"59","safe","51","red-200","blue-65","risky","safe","974","bandit-task","68","527297","0.0-3.0-0.58","40","high"
"60","risky","72","red-70","blue-118","risky","safe","1374","bandit-task","69","532064","0.0-3.0-0.59","40","high"
"61","safe","50","red-182","blue-168","risky","safe","2598","bandit-task","70","537488","0.0-3.0-0.60","40","high"
"62","risky","61","red-22","blue-211","risky","safe","1309","bandit-task","71","541152","0.0-3.0-0.61","40","high"
"63","risky","69","red-114","blue-61","risky","safe","990","bandit-task","72","544656","0.0-3.0-0.62","40","high"
"64","safe","48","red-136","blue-186","risky","safe","1454","bandit-task","73","548696","0.0-3.0-0.63","40","high"
"65","risky","18","red-26","blue-121","risky","safe","870","bandit-task","74","552504","0.0-3.0-0.64","40","high"
"66","risky","62","red-217","blue-11","risky","safe","965","bandit-task","75","555832","0.0-3.0-0.65","40","high"
"67","safe","49","red-134","blue-124","risky","safe","1198","bandit-task","76","559696","0.0-3.0-0.66","40","high"
"68","risky","42","red-154","blue-101","risky","safe","1132","bandit-task","77","563350","0.0-3.0-0.67","40","high"
"69","risky","68","red-58","blue-95","risky","safe","1030","bandit-task","78","566902","0.0-3.0-0.68","40","high"
"70","risky","72","red-17","blue-55","risky","safe","990","bandit-task","79","570286","0.0-3.0-0.69","40","high"
"71","risky","73","red-82","blue-109","risky","safe","1470","bandit-task","80","574126","0.0-3.0-0.70","40","high"
"72","safe","54","red-151","blue-130","risky","safe","1302","bandit-task","81","577797","0.0-3.0-0.71","40","high"
"73","risky","62","red-117","blue-144","risky","safe","1902","bandit-task","82","582093","0.0-3.0-0.72","40","high"
"74","risky","80","red-13","blue-99","risky","safe","1094","bandit-task","83","585573","0.0-3.0-0.73","40","high"
"75","risky","28","red-31","blue-37","risky","safe","919","bandit-task","84","588869","0.0-3.0-0.74","40","high"
"76","safe","51","red-9","blue-52","risky","safe","1310","bandit-task","85","592805","0.0-3.0-0.75","40","high"
"77","safe","51","red-81","blue-98","risky","safe","1166","bandit-task","86","596365","0.0-3.0-0.76","40","high"
"78","risky","60","red-169","blue-198","risky","safe","918","bandit-task","87","599693","0.0-3.0-0.77","40","high"
"79","safe","50","red-57","blue-125","risky","safe","1598","bandit-task","88","603685","0.0-3.0-0.78","40","high"
"80","risky","81","red-155","blue-209","risky","safe","1046","bandit-task","89","607181","0.0-3.0-0.79","40","high"
"81","risky","18","red-51","blue-50","risky","safe","823","bandit-task","90","610437","0.0-3.0-0.80","40","high"
"82","safe","51","red-160","blue-175","risky","safe","758","bandit-task","91","613565","0.0-3.0-0.81","40","high"
"83","risky","29","red-120","blue-178","risky","safe","1135","bandit-task","92","617101","0.0-3.0-0.82","40","high"
"84","safe","50","red-135","blue-149","risky","safe","1350","bandit-task","93","621566","0.0-3.0-0.83","40","high"
"85","safe","52","red-54","blue-40","risky","safe","1406","bandit-task","94","625341","0.0-3.0-0.84","40","high"
"86","risky","86","red-32","blue-113","risky","safe","910","bandit-task","95","628662","0.0-3.0-0.85","40","high"
"87","risky","23","red-62","blue-112","risky","safe","1086","bandit-task","96","632174","0.0-3.0-0.86","40","high"
"88","risky","63","red-183","blue-116","risky","safe","846","bandit-task","97","635446","0.0-3.0-0.87","40","high"
"89","safe","51","red-15","blue-83","risky","safe","2038","bandit-task","98","641165","0.0-3.0-0.88","40","high"
"90","safe","51","red-184","blue-59","risky","safe","1606","bandit-task","99","645253","0.0-3.0-0.89","40","high"
"91","safe","50","red-137","blue-49","risky","safe","2141","bandit-task","100","649781","0.0-3.0-0.90","40","high"
"92","risky","34","red-78","blue-192","risky","safe","750","bandit-task","101","652885","0.0-3.0-0.91","40","high"
"93","safe","49","red-145","blue-123","risky","safe","1542","bandit-task","102","657565","0.0-3.0-0.92","40","high"
"94","risky","74","red-87","blue-33","risky","safe","1302","bandit-task","103","661237","0.0-3.0-0.93","40","high"
"95","safe","51","red-132","blue-29","risky","safe","1231","bandit-task","104","665302","0.0-3.0-0.94","40","high"
"96","safe","50","red-3","blue-64","risky","safe","2782","bandit-task","105","670797","0.0-3.0-0.95","40","high"
"97","risky","27","red-21","blue-19","risky","safe","1933","bandit-task","106","675469","0.0-3.0-0.96","40","high"
"98","risky","67","red-90","blue-188","risky","safe","1397","bandit-task","107","679685","0.0-3.0-0.97","40","high"
"99","safe","49","red-140","blue-6","risky","safe","1341","bandit-task","108","683663","0.0-3.0-0.98","40","high"
"100","safe","50","red-214","blue-88","risky","safe","2078","bandit-task","109","689224","0.0-3.0-0.99","40","high"
"101","safe","49","red-150","blue-80","risky","safe","1462","bandit-task","110","693343","0.0-3.0-0.100","40","high"
"102","safe","50","red-139","blue-195","risky","safe","1622","bandit-task","111","697927","0.0-3.0-0.101","40","high"
"103","risky","64","red-46","blue-166","risky","safe","2246","bandit-task","112","702951","0.0-3.0-0.102","40","high"
"104","risky","25","red-165","blue-27","risky","safe","1590","bandit-task","113","707159","0.0-3.0-0.103","40","high"
"105","risky","29","red-97","blue-202","risky","safe","1277","bandit-task","114","710959","0.0-3.0-0.104","40","high"
"106","safe","51","red-138","blue-38","risky","safe","1094","bandit-task","115","714519","0.0-3.0-0.105","40","high"
"107","safe","50","red-196","blue-129","risky","safe","1917","bandit-task","116","719456","0.0-3.0-0.106","40","high"
"108","safe","50","red-185","blue-221","risky","safe","2197","bandit-task","117","724439","0.0-3.0-0.107","40","high"
"109","risky","20","red-197","blue-206","risky","safe","1253","bandit-task","118","728199","0.0-3.0-0.108","40","high"
"110","risky","27","red-34","blue-39","risky","safe","1005","bandit-task","119","731871","0.0-3.0-0.109","40","high"
