"trial","choice","feedback","left_stimulus","right_stimulus","left_option","right_option","rt","trial_type","trial_index","time_elapsed","internal_node_id","participant","condition"
"1","risky","77","blue-32","red-214","safe","risky","5513","bandit-task","7","253270","0.0-3.0-0.0","75","high"
"2","safe","52","blue-62","red-42","safe","risky","1606","bandit-task","8","257686","0.0-3.0-0.1","75","high"
"3","risky","75","blue-164","red-89","safe","risky","1069","bandit-task","9","261636","0.0-3.0-0.2","75","high"
"4","risky","83","blue-181","red-169","safe","risky","1319","bandit-task","10","265307","0.0-3.0-0.3","75","high"
"5","safe","51","blue-69","red-117","safe","risky","1598","bandit-task","11","269227","0.0-3.0-0.4","75","high"
"6","safe","51","blue-166","red-219","safe","risky","1183","bandit-task","12","272939","0.0-3.0-0.5","75","high"
"7","risky","38","blue-35","red-114","safe","risky","590","bandit-task","13","275843","0.0-3.0-0.6","75","high"
"8","risky","17","blue-139","red-175","safe","risky","895","bandit-task","14","279107","0.0-3.0-0.7","75","high"
"9","risky","56","blue-54","red-87","safe","risky","887","bandit-task","15","282355","0.0-3.0-0.8","75","high"
"10","safe","50","blue-184","red-161","safe","risky","1615","bandit-task","16","286996","0.0-3.0-0.9","75","high"
"11","risky","35","blue-218","red-36","safe","risky","1533","bandit-task","17","291227","0.0-3.0-0.10","75","high"
"12","risky","41","blue-104","red-23","safe","risky","1277","bandit-task","18","295179","0.0-3.0-0.11","75","high"
"13","risky","63","blue-17","red-95","safe","risky","1742","bandit-task","19","299323","0.0-3.0-0.12","75","high"
"14","risky","15","blue-222","red-84","safe","risky","1726","bandit-task","20","303427","0.0-3.0-0.13","75","high"
"15","safe","51","blue-108","red-37","safe","risky","1446","bandit-task","21","307323","0.0-3.0-0.14","75","high"
"16","safe","49","blue-50","red-135","safe","risky","1422","bandit-task","22","311275","0.0-3.0-0.15","75","high"
"17","risky","37","blue-118","red-127","safe","risky","1342","bandit-task","23","314931","0.0-3.0-0.16","75","high"
"18","risky","40","blue-140","red-4","safe","risky","1662","bandit-task","24","318907","0.0-3.0-0.17","75","high"
"19","safe","48","blue-133","red-49","safe","risky","1430","bandit-task","25","322731","0.0-3.0-0.18","75","high"
"20","risky","26","blue-151","red-115","safe","risky","1318","bandit-task","26","326707","0.0-3.0-0.19","75","high"
"21","safe","51","blue-153","red-183","safe","risky","1774","bandit-task","27","331036","0.0-3.0-0.20","75","high"
"22","safe","51","blue-197","red-211","safe","risky","1398","bandit-task","28","334747","0.0-3.0-0.21","75","high"
"23","risky","26","blue-186","red-13","safe","risky","1239","bandit-task","29","344403","0.0-3.0-0.22","75","high"
"24","safe","50","blue-81","red-112","safe","risky","1229","bandit-task","30","354379","0.0-3.0-0.23","75","high"
"25","safe","50","blue-46","red-157","safe","risky","918","bandit-task","31","359043","0.0-3.0-0.24","75","high"
"26","safe","51","blue-119","red-168","safe","risky","854","bandit-task","32","365011","0.0-3.0-0.25","75","high"
"27","risky","44","blue-68","red-125","safe","risky","1022","bandit-task","33","368347","0.0-3.0-0.26","75","high"
"28","safe","49","blue-198","red-172","safe","risky","998","bandit-task","34","375491","0.0-3.0-0.27","75","high"
"29","risky","33","blue-116","red-40","safe","risky","958","bandit-task","35","380627","0.0-3.0-0.28","75","high"
"30","risky","65","blue-192","red-191","safe","risky","942","bandit-task","36","384077","0.0-3.0-0.29","75","high"
"31","safe","51","blue-101","red-12","safe","risky","1030","bandit-task","37","387581","0.0-3.0-0.30","75","high"
"32","risky","48","blue-74","red-106","safe","risky","1758","bandit-task","38","391877","0.0-3.0-0.31","75","high"
"33","safe","48","blue-155","red-174","safe","risky","1198","bandit-task","39","395517","0.0-3.0-0.32","75","high"
"34","risky","15","blue-122","red-8","safe","risky","1566","bandit-task","40","400269","0.0-3.0-0.33","75","high"
"35","risky","23","blue-216","red-120","safe","risky","1110","bandit-task","41","403781","0.0-3.0-0.34","75","high"
"36","safe","52","blue-29","red-176","safe","risky","1118","bandit-task","42","407605","0.0-3.0-0.35","75","high"
"37","safe","49","blue-205","red-43","safe","risky","902","bandit-task","43","410909","0.0-3.0-0.36","75","high"
"38","safe","51","blue-34","red-30","safe","risky","1094","bandit-task","44","414541","0.0-3.0-0.37","75","high"
"39","risky","40","blue-48","red-20","safe","risky","1566","bandit-task","45","418813","0.0-3.0-0.38","75","high"
"40","risky","53","blue-103","red-173","safe","risky","934","bandit-task","46","422740","0.0-3.0-0.39","75","high"
"41","risky","81","blue-70","red-61","safe","risky","687","bandit-task","47","426045","0.0-3.0-0.40","75","high"
"42","safe","49","blue-76","red-152","safe","risky","1133","bandit-task","48","431349","0.0-3.0-0.41","75","high"
"43","safe","51","blue-150","red-88","safe","risky","1894","bandit-task","49","435660","0.0-3.0-0.42","75","high"
"44","risky","80","blue-83","red-162","safe","risky","1270","bandit-task","50","439252","0.0-3.0-0.43","75","high"
"45","risky","23","blue-148","red-134","safe","risky","1439","bandit-task","51","443028","0.0-3.0-0.44","75","high"
"46","risky","76","blue-71","red-24","safe","risky","949","bandit-task","52","446312","0.0-3.0-0.45","75","high"
"47","safe","50","blue-215","red-3","safe","risky","1367","bandit-task","53","450176","0.0-3.0-0.46","75","high"
"48","safe","50","blue-92","red-86","safe","risky","1118","bandit-task","54","453776","0.0-3.0-0.47","75","high"
"49","risky","49","blue-180","red-195","safe","risky","943","bandit-task","55","457184","0.0-3.0-0.48","75","high"
"50","risky","72","blue-94","red-187","safe","risky","2870","bandit-task","56","462384","0.0-3.0-0.49","75","high"
"51","risky","70","blue-220","red-58","safe","risky","910","bandit-task","57","465624","0.0-3.0-0.50","75","high"
"52","risky","21","blue-66","red-99","safe","risky","1214","bandit-task","58","469144","0.0-3.0-0.51","75","high"
"53","risky","76","blue-178","red-124","safe","risky","1182","bandit-task","59","472849","0.0-3.0-0.52","75","high"
"54","safe","49","blue-27","red-6","safe","risky","933","bandit-task","60","476136","0.0-3.0-0.53","75","high"
"55","risky","42","blue-159","red-142","safe","risky","2062","bandit-task","61","480793","0.0-3.0-0.54","75","high"
"56","risky","70","blue-7","red-189","safe","risky","1133","bandit-task","62","484808","0.0-3.0-0.55","75","high"
"57","safe","50","blue-65","red-98","safe","risky","1245","bandit-task","63","489384","0.0-3.0-0.56","75","high"
"58","safe","49","blue-212","red-90","safe","risky","2645","bandit-task","64","494816","0.0-3.0-0.57","75","high"
"59","risky","11","blue-138","red-126","safe","risky","894","bandit-task","65","498544","0.0-3.0-0.58","75","high"
"60","risky","43","blue-1","red-204","safe","risky","990","bandit-task","66","502328","0.0-3.0-0.59","75","high"
"61","risky","61","blue-202","red-163","safe","risky","1534","bandit-task","67","506160","0.0-3.0-0.60","75","high"
"62","safe","50","blue-2","red-137","safe","risky","2376","bandit-task","68","511177","0.0-3.0-0.61","75","high"
"63","risky","69","blue-145","red-121","safe","risky","1278","bandit-task","69","514945","0.0-3.0-0.62","75","high"
"64","risky","74","blue-53","red-80","safe","risky","846","bandit-task","70","518177","0.0-3.0-0.63","75","high"
"65","safe","52","blue-132","red-45","safe","risky","1165","bandit-task","71","522113","0.0-3.0-0.64","75","high"
"66","risky","78","blue-147","red-78","safe","risky","749","bandit-task","72","525297","0.0-3.0-0.65","75","high"
"67","safe","49","blue-194","red-113","safe","risky","1390","bandit-task","73","529153","0.0-3.0-0.66","75","high"
"68","safe","51","blue-25","red-72","safe","risky","1022","bandit-task","74","532521","0.0-3.0-0.67","75","high"
"69","risky","31","blue-111","red-182","safe","risky","1485","bandit-task","75","536377","0.0-3.0-0.68","75","high"
"70","risky","20","blue-207","red-128","safe","risky","974","bandit-task","76","539713","0.0-3.0-0.69","75","high"
"71","risky","13","blue-60","red-199","safe","risky","894","bandit-task","77","543089","0.0-3.0-0.70","75","high"
"72","safe","51","blue-82","red-91","safe","risky","1070","bandit-task","78","546489","0.0-3.0-0.71","75","high"
"73","risky","51","blue-196","red-51","safe","risky","2782","bandit-task","79","552401","0.0-3.0-0.72","75","high"
"74","risky","33","blue-213","red-11","safe","risky","1437","bandit-task","80","556289","0.0-3.0-0.73","75","high"
"75","safe","51","blue-129","red-14","safe","risky","1022","bandit-task","81","559905","0.0-3.0-0.74","75","high"
"76","risky","35","blue-5","red-200","safe","risky","1206","bandit-task","82","563417","0.0-3.0-0.75","75","high"
"77","safe","50","blue-136","red-64","safe","risky","934","bandit-task","83","567161","0.0-3.0-0.76","75","high"
"78","risky","26","blue-123","red-9","safe","risky","1062","bandit-task","84","570705","0.0-3.0-0.77","75","high"
"79","safe","50","blue-188","red-158","safe","risky","974","bandit-task","85","574033","0.0-3.0-0.78","75","high"
"80","risky","32","blue-109","red-144","safe","risky","902","bandit-task","86","577561","0.0-3.0-0.79","75","high"
"81","safe","50","blue-203","red-67","safe","risky","870","bandit-task","87","580841","0.0-3.0-0.80","75","high"
"82","risky","42","blue-167","red-110","safe","risky","950","bandit-task","88","584161","0.0-3.0-0.81","75","high"
"83","risky","68","blue-130","red-206","safe","risky","942","bandit-task","89","587793","0.0-3.0-0.82","75","high"
"84","safe","49","blue-102","red-190","safe","risky","1133","bandit-task","90","591665","0.0-3.0-0.83","75","high"
"85","risky","36","blue-22","red-208","safe","risky","1902","bandit-task","91","596521","0.0-3.0-0.84","75","high"
"86","safe","50","blue-185","red-18","safe","risky","781","bandit-task","92","600009","0.0-3.0-0.85","75","high"
"87","risky","62","blue-10","red-59","safe","risky","1454","bandit-task","93","604073","0.0-3.0-0.86","75","high"
"88","risky","31","blue-179","red-160","safe","risky","2030","bandit-task","94","608672","0.0-3.0-0.87","75","high"
"89","risky","32","blue-154","red-165","safe","risky","990","bandit-task","95","612409","0.0-3.0-0.88","75","high"
"90","safe","48","blue-19","red-85","safe","risky","1158","bandit-task","96","615888","0.0-3.0-0.89","75","high"
"91","safe","50","blue-177","red-38","safe","risky","862","bandit-task","97","619216","0.0-3.0-0.90","75","high"
"92","risky","72","blue-107","red-41","safe","risky","1094","bandit-task","98","622816","0.0-3.0-0.91","75","high"
"93","safe","50","blue-217","red-171","safe","risky","1670","bandit-task","99","627105","0.0-3.0-0.92","75","high"
"94","risky","64","blue-209","red-210","safe","risky","1585","bandit-task","100","631157","0.0-3.0-0.93","75","high"
"95","safe","52","blue-96","red-15","safe","risky","1413","bandit-task","101","634997","0.0-3.0-0.94","75","high"
"96","safe","50","blue-100","red-57","safe","risky","822","bandit-task","102","638349","0.0-3.0-0.95","75","high"
"97","risky","71","blue-39","red-79","safe","risky","941","bandit-task","103","641893","0.0-3.0-0.96","75","high"
"98","safe","50","blue-26","red-77","safe","risky","4582","bandit-task","104","649213","0.0-3.0-0.97","75","high"
"99","safe","49","blue-63","red-55","safe","risky","981","bandit-task","105","652677","0.0-3.0-0.98","75","high"
"100","safe","51","blue-221","red-44","safe","risky","1286","bandit-task","106","656253","0.0-3.0-0.99","75","high"
"101","safe","49","blue-52","red-75","safe","risky","1518","bandit-task","107","660133","0.0-3.0-0.100","75","high"
"102","safe","50","blue-93","red-33","safe","risky","1038","bandit-task","108","663477","0.0-3.0-0.101","75","high"
"103","risky","14","blue-156","red-16","safe","risky","1094","bandit-task","109","666901","0.0-3.0-0.102","75","high"
"104","safe","50","blue-201","red-193","safe","risky","1726","bandit-task","110","670949","0.0-3.0-0.103","75","high"
"105","risky","18","blue-21","red-105","safe","risky","5117","bandit-task","111","678373","0.0-3.0-0.104","75","high"
"106","risky","24","blue-131","red-56","safe","risky","854","bandit-task","112","681565","0.0-3.0-0.105","75","high"
"107","safe","49","blue-143","red-47","safe","risky","702","bandit-task","113","684652","0.0-3.0-0.106","75","high"
"108","risky","35","blue-141","red-28","safe","risky","1270","bandit-task","114","688364","0.0-3.0-0.107","75","high"
"109","risky","38","blue-73","red-146","safe","risky","1675","bandit-task","115","692322","0.0-3.0-0.108","75","high"
"110","risky","24","blue-149","red-31","safe","risky","885","bandit-task","116","695834","0.0-3.0-0.109","75","high"
