"trial","choice","feedback","left_stimulus","right_stimulus","left_option","right_option","rt","trial_type","trial_index","time_elapsed","internal_node_id","participant","condition"
"1","safe","49","blue-44","red-75","risky","safe","3109","bandit-task","4","191660","0.0-3.0-0.0","101","high"
"2","safe","50","blue-222","red-178","risky","safe","1910","bandit-task","5","196476","0.0-3.0-0.1","101","high"
"3","risky","28","blue-102","red-83","risky","safe","1078","bandit-task","6","200508","0.0-3.0-0.2","101","high"
"4","risky","29","blue-189","red-104","risky","safe","1317","bandit-task","7","204227","0.0-3.0-0.3","101","high"
"5","safe","51","blue-2","red-172","risky","safe","1311","bandit-task","8","209547","0.0-3.0-0.4","101","high"
"6","risky","24","blue-16","red-156","risky","safe","7238","bandit-task","9","219691","0.0-3.0-0.5","101","high"
"7","safe","49","blue-84","red-54","risky","safe","606","bandit-task","10","222643","0.0-3.0-0.6","101","high"
"8","safe","50","blue-69","red-7","risky","safe","758","bandit-task","11","225739","0.0-3.0-0.7","101","high"
"9","risky","33","blue-114","red-13","risky","safe","558","bandit-task","12","228947","0.0-3.0-0.8","101","high"
"10","safe","50","blue-74","red-148","risky","safe","911","bandit-task","13","232475","0.0-3.0-0.9","101","high"
"11","safe","50","blue-51","red-28","risky","safe","4630","bandit-task","14","239595","0.0-3.0-0.10","101","high"
"12","risky","33","blue-149","red-5","risky","safe","1022","bandit-task","15","243131","0.0-3.0-0.11","101","high"
"13","safe","50","blue-112","red-208","risky","safe","846","bandit-task","16","246371","0.0-3.0-0.12","101","high"
"14","risky","84","blue-126","red-85","risky","safe","854","bandit-task","17","249723","0.0-3.0-0.13","101","high"
"15","risky","26","blue-14","red-66","risky","safe","1047","bandit-task","18","253106","0.0-3.0-0.14","101","high"
"16","risky","25","blue-193","red-152","risky","safe","1022","bandit-task","19","256458","0.0-3.0-0.15","101","high"
"17","safe","50","blue-99","red-100","risky","safe","1078","bandit-task","20","260154","0.0-3.0-0.16","101","high"
"18","risky","60","blue-188","red-123","risky","safe","782","bandit-task","21","263306","0.0-3.0-0.17","101","high"
"19","risky","62","blue-140","red-209","risky","safe","1502","bandit-task","22","267130","0.0-3.0-0.18","101","high"
"20","safe","51","blue-154","red-36","risky","safe","829","bandit-task","23","270482","0.0-3.0-0.19","101","high"
"21","safe","49","blue-201","red-97","risky","safe","1414","bandit-task","24","275114","0.0-3.0-0.20","101","high"
"22","safe","51","blue-12","red-167","risky","safe","1462","bandit-task","25","279002","0.0-3.0-0.21","101","high"
"23","safe","50","blue-133","red-185","risky","safe","918","bandit-task","26","282338","0.0-3.0-0.22","101","high"
"24","safe","49","blue-116","red-155","risky","safe","1694","bandit-task","27","286410","0.0-3.0-0.23","101","high"
"25","safe","51","blue-143","red-124","risky","safe","1318","bandit-task","28","290098","0.0-3.0-0.24","101","high"
"26","safe","49","blue-20","red-25","risky","safe","1007","bandit-task","29","293410","0.0-3.0-0.25","101","high"
"27","safe","51","blue-111","red-88","risky","safe","1286","bandit-task","30","297346","0.0-3.0-0.26","101","high"
"28","risky","26","blue-3","red-142","risky","safe","870","bandit-task","31","300569","0.0-3.0-0.27","101","high"
"29","risky","76","blue-34","red-218","risky","safe","942","bandit-task","32","303906","0.0-3.0-0.28","101","high"
"30","risky","68","blue-159","red-6","risky","safe","1087","bandit-task","33","307506","0.0-3.0-0.29","101","high"
"31","safe","50","blue-46","red-207","risky","safe","774","bandit-task","34","310996","0.0-3.0-0.30","101","high"
"32","safe","48","blue-132","red-183","risky","safe","950","bandit-task","35","314396","0.0-3.0-0.31","101","high"
"33","safe","49","blue-194","red-29","risky","safe","1334","bandit-task","36","318164","0.0-3.0-0.32","101","high"
"34","risky","81","blue-52","red-64","risky","safe","1438","bandit-task","37","322443","0.0-3.0-0.33","101","high"
"35","risky","54","blue-105","red-57","risky","safe","1030","bandit-task","38","325795","0.0-3.0-0.34","101","high"
"36","safe","49","blue-214","red-125","risky","safe","623","bandit-task","39","328859","0.0-3.0-0.35","101","high"
"37","safe","51","blue-62","red-179","risky","safe","1894","bandit-task","40","333715","0.0-3.0-0.36","101","high"
"38","safe","49","blue-181","red-177","risky","safe","1062","bandit-task","41","337171","0.0-3.0-0.37","101","high"
"39","risky","20","blue-216","red-117","risky","safe","823","bandit-task","42","340507","0.0-3.0-0.38","101","high"
"40","safe","50","blue-10","red-196","risky","safe","750","bandit-task","43","343851","0.0-3.0-0.39","101","high"
"41","risky","17","blue-151","red-220","risky","safe","734","bandit-task","44","346987","0.0-3.0-0.40","101","high"
"42","safe","50","blue-163","red-161","risky","safe","734","bandit-task","45","350211","0.0-3.0-0.41","101","high"
"43","risky","63","blue-61","red-127","risky","safe","989","bandit-task","46","353515","0.0-3.0-0.42","101","high"
"44","risky","66","blue-60","red-134","risky","safe","878","bandit-task","47","356747","0.0-3.0-0.43","101","high"
"45","risky","25","blue-59","red-45","risky","safe","1029","bandit-task","48","360683","0.0-3.0-0.44","101","high"
"46","safe","49","blue-215","red-195","risky","safe","782","bandit-task","49","364467","0.0-3.0-0.45","101","high"
"47","safe","50","blue-77","red-107","risky","safe","1294","bandit-task","50","368387","0.0-3.0-0.46","101","high"
"48","risky","20","blue-171","red-147","risky","safe","973","bandit-task","51","372813","0.0-3.0-0.47","101","high"
"49","safe","48","blue-81","red-58","risky","safe","766","bandit-task","52","376158","0.0-3.0-0.48","101","high"
"50","safe","51","blue-103","red-175","risky","safe","1078","bandit-task","53","379830","0.0-3.0-0.49","101","high"
"51","risky","28","blue-39","red-24","risky","safe","782","bandit-task","54","383278","0.0-3.0-0.50","101","high"
"52","safe","50","blue-113","red-169","risky","safe","734","bandit-task","55","386446","0.0-3.0-0.51","101","high"
"53","risky","66","blue-202","red-203","risky","safe","1454","bandit-task","56","390285","0.0-3.0-0.52","101","high"
"54","risky","82","blue-93","red-89","risky","safe","1047","bandit-task","57","394389","0.0-3.0-0.53","101","high"
"55","risky","21","blue-26","red-72","risky","safe","782","bandit-task","58","397613","0.0-3.0-0.54","101","high"
"56","safe","51","blue-173","red-67","risky","safe","1334","bandit-task","59","401709","0.0-3.0-0.55","101","high"
"57","risky","41","blue-80","red-145","risky","safe","829","bandit-task","60","405189","0.0-3.0-0.56","101","high"
"58","safe","49","blue-110","red-129","risky","safe","934","bandit-task","61","409109","0.0-3.0-0.57","101","high"
"59","safe","51","blue-4","red-157","risky","safe","3198","bandit-task","62","414685","0.0-3.0-0.58","101","high"
"60","safe","50","blue-106","red-8","risky","safe","1294","bandit-task","63","418333","0.0-3.0-0.59","101","high"
"61","risky","73","blue-30","red-101","risky","safe","790","bandit-task","64","421509","0.0-3.0-0.60","101","high"
"62","risky","28","blue-198","red-190","risky","safe","1045","bandit-task","65","425373","0.0-3.0-0.61","101","high"
"63","safe","49","blue-146","red-53","risky","safe","1686","bandit-task","66","429437","0.0-3.0-0.62","101","high"
"64","risky","71","blue-42","red-165","risky","safe","909","bandit-task","67","432765","0.0-3.0-0.63","101","high"
"65","risky","60","blue-121","red-130","risky","safe","8310","bandit-task","68","444197","0.0-3.0-0.64","101","high"
"66","safe","48","blue-90","red-170","risky","safe","789","bandit-task","69","447421","0.0-3.0-0.65","101","high"
"67","safe","51","blue-141","red-27","risky","safe","902","bandit-task","70","451069","0.0-3.0-0.66","101","high"
"68","risky","25","blue-33","red-71","risky","safe","878","bandit-task","71","454405","0.0-3.0-0.67","101","high"
"69","safe","51","blue-15","red-131","risky","safe","1046","bandit-task","72","457925","0.0-3.0-0.68","101","high"
"70","risky","15","blue-11","red-217","risky","safe","1294","bandit-task","73","461973","0.0-3.0-0.69","101","high"
"71","safe","51","blue-139","red-31","risky","safe","806","bandit-task","74","465253","0.0-3.0-0.70","101","high"
"72","risky","29","blue-144","red-68","risky","safe","950","bandit-task","75","468588","0.0-3.0-0.71","101","high"
"73","risky","72","blue-213","red-40","risky","safe","838","bandit-task","76","472036","0.0-3.0-0.72","101","high"
"74","safe","48","blue-91","red-79","risky","safe","1471","bandit-task","77","476284","0.0-3.0-0.73","101","high"
"75","risky","65","blue-18","red-43","risky","safe","878","bandit-task","78","479612","0.0-3.0-0.74","101","high"
"76","safe","48","blue-109","red-136","risky","safe","838","bandit-task","79","482796","0.0-3.0-0.75","101","high"
"77","risky","43","blue-199","red-138","risky","safe","678","bandit-task","80","486476","0.0-3.0-0.76","101","high"
"78","safe","50","blue-86","red-206","risky","safe","1533","bandit-task","81","490732","0.0-3.0-0.77","101","high"
"79","risky","61","blue-73","red-182","risky","safe","1757","bandit-task","82","498146","0.0-3.0-0.78","101","high"
"80","safe","49","blue-204","red-212","risky","safe","926","bandit-task","83","502018","0.0-3.0-0.79","101","high"
"81","risky","61","blue-82","red-153","risky","safe","727","bandit-task","84","505154","0.0-3.0-0.80","101","high"
"82","risky","86","blue-219","red-78","risky","safe","1022","bandit-task","85","508514","0.0-3.0-0.81","101","high"
"83","safe","50","blue-186","red-160","risky","safe","879","bandit-task","86","512034","0.0-3.0-0.82","101","high"
"84","risky","73","blue-17","red-150","risky","safe","605","bandit-task","87","514986","0.0-3.0-0.83","101","high"
"85","risky","68","blue-96","red-180","risky","safe","805","bandit-task","88","518122","0.0-3.0-0.84","101","high"
"86","safe","50","blue-49","red-35","risky","safe","758","bandit-task","89","521242","0.0-3.0-0.85","101","high"
"87","risky","77","blue-56","red-50","risky","safe","870","bandit-task","90","524682","0.0-3.0-0.86","101","high"
"88","risky","53","blue-197","red-38","risky","safe","741","bandit-task","91","528138","0.0-3.0-0.87","101","high"
"89","safe","49","blue-158","red-191","risky","safe","741","bandit-task","92","532290","0.0-3.0-0.88","101","high"
"90","risky","25","blue-63","red-41","risky","safe","734","bandit-task","93","535410","0.0-3.0-0.89","101","high"
"91","risky","33","blue-187","red-115","risky","safe","902","bandit-task","94","538802","0.0-3.0-0.90","101","high"
"92","safe","49","blue-95","red-92","risky","safe","837","bandit-task","95","542410","0.0-3.0-0.91","101","high"
"93","risky","29","blue-98","red-135","risky","safe","630","bandit-task","96","545970","0.0-3.0-0.92","101","high"
"94","safe","50","blue-168","red-184","risky","safe","708","bandit-task","97","549026","0.0-3.0-0.93","101","high"
"95","risky","42","blue-32","red-37","risky","safe","574","bandit-task","98","551922","0.0-3.0-0.94","101","high"
"96","safe","51","blue-21","red-210","risky","safe","894","bandit-task","99","555194","0.0-3.0-0.95","101","high"
"97","risky","31","blue-87","red-221","risky","safe","662","bandit-task","100","558401","0.0-3.0-0.96","101","high"
"98","risky","65","blue-118","red-48","risky","safe","573","bandit-task","101","561289","0.0-3.0-0.97","101","high"
"99","safe","50","blue-122","red-76","risky","safe","966","bandit-task","102","564633","0.0-3.0-0.98","101","high"
"100","risky","72","blue-211","red-192","risky","safe","766","bandit-task","103","567905","0.0-3.0-0.99","101","high"
"101","safe","51","blue-65","red-1","risky","safe","1269","bandit-task","104","572281","0.0-3.0-0.100","101","high"
"102","risky","33","blue-166","red-22","risky","safe","1165","bandit-task","105","576641","0.0-3.0-0.101","101","high"
"103","risky","70","blue-205","red-137","risky","safe","1061","bandit-task","106","580569","0.0-3.0-0.102","101","high"
"104","risky","66","blue-200","red-94","risky","safe","846","bandit-task","107","584097","0.0-3.0-0.103","101","high"
"105","safe","51","blue-23","red-55","risky","safe","741","bandit-task","108","587321","0.0-3.0-0.104","101","high"
"106","risky","68","blue-47","red-70","risky","safe","630","bandit-task","109","590857","0.0-3.0-0.105","101","high"
"107","risky","58","blue-108","red-120","risky","safe","789","bandit-task","110","594217","0.0-3.0-0.106","101","high"
"108","risky","26","blue-176","red-162","risky","safe","806","bandit-task","111","597625","0.0-3.0-0.107","101","high"
"109","risky","25","blue-128","red-164","risky","safe","869","bandit-task","112","601497","0.0-3.0-0.108","101","high"
"110","safe","50","blue-119","red-19","risky","safe","2214","bandit-task","113","606096","0.0-3.0-0.109","101","high"
