"trial","choice","feedback","left_stimulus","right_stimulus","left_option","right_option","rt","trial_type","trial_index","time_elapsed","internal_node_id","participant","condition"
"1","safe","50","red-30","blue-160","risky","safe","1586","bandit-task","7","97126","0.0-3.0-0.0","27","low"
"2","safe","50","red-30","blue-160","risky","safe","2830","bandit-task","8","102734","0.0-3.0-0.1","27","low"
"3","risky","89","red-30","blue-160","risky","safe","3302","bandit-task","9","108758","0.0-3.0-0.2","27","low"
"4","risky","26","red-30","blue-160","risky","safe","1190","bandit-task","10","113259","0.0-3.0-0.3","27","low"
"5","safe","49","red-30","blue-160","risky","safe","1006","bandit-task","11","117739","0.0-3.0-0.4","27","low"
"6","safe","52","red-30","blue-160","risky","safe","966","bandit-task","12","121491","0.0-3.0-0.5","27","low"
"7","risky","28","red-30","blue-160","risky","safe","2150","bandit-task","13","126331","0.0-3.0-0.6","27","low"
"8","risky","18","red-30","blue-160","risky","safe","686","bandit-task","14","129339","0.0-3.0-0.7","27","low"
"9","safe","50","red-30","blue-160","risky","safe","615","bandit-task","15","132395","0.0-3.0-0.8","27","low"
"10","safe","50","red-30","blue-160","risky","safe","1118","bandit-task","16","136843","0.0-3.0-0.9","27","low"
"11","safe","51","red-30","blue-160","risky","safe","646","bandit-task","17","139794","0.0-3.0-0.10","27","low"
"12","risky","64","red-30","blue-160","risky","safe","783","bandit-task","18","142867","0.0-3.0-0.11","27","low"
"13","risky","63","red-30","blue-160","risky","safe","814","bandit-task","19","146378","0.0-3.0-0.12","27","low"
"14","safe","50","red-30","blue-160","risky","safe","679","bandit-task","20","150002","0.0-3.0-0.13","27","low"
"15","risky","22","red-30","blue-160","risky","safe","791","bandit-task","21","153146","0.0-3.0-0.14","27","low"
"16","safe","50","red-30","blue-160","risky","safe","695","bandit-task","22","156379","0.0-3.0-0.15","27","low"
"17","safe","52","red-30","blue-160","risky","safe","486","bandit-task","23","159514","0.0-3.0-0.16","27","low"
"18","safe","50","red-30","blue-160","risky","safe","735","bandit-task","24","162898","0.0-3.0-0.17","27","low"
"19","risky","32","red-30","blue-160","risky","safe","654","bandit-task","25","165898","0.0-3.0-0.18","27","low"
"20","risky","19","red-30","blue-160","risky","safe","774","bandit-task","26","168938","0.0-3.0-0.19","27","low"
"21","safe","49","red-30","blue-160","risky","safe","503","bandit-task","27","171818","0.0-3.0-0.20","27","low"
"22","safe","50","red-30","blue-160","risky","safe","918","bandit-task","28","175366","0.0-3.0-0.21","27","low"
"23","risky","29","red-30","blue-160","risky","safe","646","bandit-task","29","178518","0.0-3.0-0.22","27","low"
"24","safe","51","red-30","blue-160","risky","safe","663","bandit-task","30","181749","0.0-3.0-0.23","27","low"
"25","safe","48","red-30","blue-160","risky","safe","543","bandit-task","31","184581","0.0-3.0-0.24","27","low"
"26","safe","50","red-30","blue-160","risky","safe","606","bandit-task","32","187694","0.0-3.0-0.25","27","low"
"27","safe","49","red-30","blue-160","risky","safe","1814","bandit-task","33","192045","0.0-3.0-0.26","27","low"
"28","risky","29","red-30","blue-160","risky","safe","671","bandit-task","34","195157","0.0-3.0-0.27","27","low"
"29","safe","51","red-30","blue-160","risky","safe","535","bandit-task","35","198157","0.0-3.0-0.28","27","low"
"30","safe","50","red-30","blue-160","risky","safe","566","bandit-task","36","201053","0.0-3.0-0.29","27","low"
"31","safe","49","red-30","blue-160","risky","safe","478","bandit-task","37","204285","0.0-3.0-0.30","27","low"
"32","risky","28","red-30","blue-160","risky","safe","773","bandit-task","38","207525","0.0-3.0-0.31","27","low"
"33","safe","49","red-30","blue-160","risky","safe","1302","bandit-task","39","211237","0.0-3.0-0.32","27","low"
"34","safe","49","red-30","blue-160","risky","safe","462","bandit-task","40","213869","0.0-3.0-0.33","27","low"
"35","safe","49","red-30","blue-160","risky","safe","502","bandit-task","41","216677","0.0-3.0-0.34","27","low"
"36","safe","50","red-30","blue-160","risky","safe","518","bandit-task","42","220261","0.0-3.0-0.35","27","low"
"37","risky","77","red-30","blue-160","risky","safe","1846","bandit-task","43","224445","0.0-3.0-0.36","27","low"
"38","risky","66","red-30","blue-160","risky","safe","438","bandit-task","44","227213","0.0-3.0-0.37","27","low"
"39","safe","50","red-30","blue-160","risky","safe","606","bandit-task","45","230117","0.0-3.0-0.38","27","low"
"40","risky","21","red-30","blue-160","risky","safe","590","bandit-task","46","233069","0.0-3.0-0.39","27","low"
"41","safe","50","red-30","blue-160","risky","safe","502","bandit-task","47","235891","0.0-3.0-0.40","27","low"
"42","safe","48","red-30","blue-160","risky","safe","485","bandit-task","48","238660","0.0-3.0-0.41","27","low"
"43","risky","83","red-30","blue-160","risky","safe","590","bandit-task","49","242691","0.0-3.0-0.42","27","low"
"44","safe","51","red-30","blue-160","risky","safe","1838","bandit-task","50","246683","0.0-3.0-0.43","27","low"
"45","risky","44","red-30","blue-160","risky","safe","542","bandit-task","51","249723","0.0-3.0-0.44","27","low"
"46","safe","50","red-30","blue-160","risky","safe","598","bandit-task","52","253316","0.0-3.0-0.45","27","low"
"47","risky","77","red-30","blue-160","risky","safe","533","bandit-task","53","256195","0.0-3.0-0.46","27","low"
"48","safe","49","red-30","blue-160","risky","safe","469","bandit-task","54","259666","0.0-3.0-0.47","27","low"
"49","safe","51","red-30","blue-160","risky","safe","879","bandit-task","55","262891","0.0-3.0-0.48","27","low"
"50","risky","75","red-30","blue-160","risky","safe","462","bandit-task","56","266211","0.0-3.0-0.49","27","low"
"51","safe","51","red-30","blue-160","risky","safe","566","bandit-task","57","269075","0.0-3.0-0.50","27","low"
"52","safe","51","red-30","blue-160","risky","safe","614","bandit-task","58","272059","0.0-3.0-0.51","27","low"
"53","risky","67","red-30","blue-160","risky","safe","422","bandit-task","59","274667","0.0-3.0-0.52","27","low"
"54","safe","50","red-30","blue-160","risky","safe","542","bandit-task","60","277595","0.0-3.0-0.53","27","low"
"55","risky","29","red-30","blue-160","risky","safe","678","bandit-task","61","280915","0.0-3.0-0.54","27","low"
"56","safe","50","red-30","blue-160","risky","safe","438","bandit-task","62","283819","0.0-3.0-0.55","27","low"
"57","safe","50","red-30","blue-160","risky","safe","462","bandit-task","63","286619","0.0-3.0-0.56","27","low"
"58","risky","79","red-30","blue-160","risky","safe","454","bandit-task","64","290051","0.0-3.0-0.57","27","low"
"59","risky","58","red-30","blue-160","risky","safe","957","bandit-task","65","293579","0.0-3.0-0.58","27","low"
"60","safe","49","red-30","blue-160","risky","safe","558","bandit-task","66","296338","0.0-3.0-0.59","27","low"
"61","safe","52","red-30","blue-160","risky","safe","470","bandit-task","67","299530","0.0-3.0-0.60","27","low"
"62","safe","49","red-30","blue-160","risky","safe","518","bandit-task","68","302330","0.0-3.0-0.61","27","low"
"63","risky","18","red-30","blue-160","risky","safe","462","bandit-task","69","305843","0.0-3.0-0.62","27","low"
"64","safe","50","red-30","blue-160","risky","safe","413","bandit-task","70","308778","0.0-3.0-0.63","27","low"
"65","safe","49","red-30","blue-160","risky","safe","518","bandit-task","71","311602","0.0-3.0-0.64","27","low"
"66","safe","51","red-30","blue-160","risky","safe","678","bandit-task","72","314434","0.0-3.0-0.65","27","low"
"67","risky","47","red-30","blue-160","risky","safe","470","bandit-task","73","317362","0.0-3.0-0.66","27","low"
"68","safe","52","red-30","blue-160","risky","safe","574","bandit-task","74","320241","0.0-3.0-0.67","27","low"
"69","safe","50","red-30","blue-160","risky","safe","479","bandit-task","75","323370","0.0-3.0-0.68","27","low"
"70","risky","23","red-30","blue-160","risky","safe","478","bandit-task","76","327082","0.0-3.0-0.69","27","low"
"71","safe","51","red-30","blue-160","risky","safe","534","bandit-task","77","329929","0.0-3.0-0.70","27","low"
"72","safe","50","red-30","blue-160","risky","safe","446","bandit-task","78","332705","0.0-3.0-0.71","27","low"
"73","risky","75","red-30","blue-160","risky","safe","894","bandit-task","79","336113","0.0-3.0-0.72","27","low"
"74","safe","50","red-30","blue-160","risky","safe","582","bandit-task","80","339089","0.0-3.0-0.73","27","low"
"75","safe","49","red-30","blue-160","risky","safe","551","bandit-task","81","342961","0.0-3.0-0.74","27","low"
"76","risky","59","red-30","blue-160","risky","safe","527","bandit-task","82","346289","0.0-3.0-0.75","27","low"
"77","risky","29","red-30","blue-160","risky","safe","534","bandit-task","83","350281","0.0-3.0-0.76","27","low"
"78","safe","51","red-30","blue-160","risky","safe","598","bandit-task","84","353641","0.0-3.0-0.77","27","low"
"79","safe","50","red-30","blue-160","risky","safe","446","bandit-task","85","356399","0.0-3.0-0.78","27","low"
"80","risky","73","red-30","blue-160","risky","safe","661","bandit-task","86","359631","0.0-3.0-0.79","27","low"
"81","risky","80","red-30","blue-160","risky","safe","1158","bandit-task","87","363239","0.0-3.0-0.80","27","low"
"82","risky","57","red-30","blue-160","risky","safe","702","bandit-task","88","366487","0.0-3.0-0.81","27","low"
"83","safe","49","red-30","blue-160","risky","safe","998","bandit-task","89","370519","0.0-3.0-0.82","27","low"
"84","safe","50","red-30","blue-160","risky","safe","534","bandit-task","90","373319","0.0-3.0-0.83","27","low"
"85","risky","72","red-30","blue-160","risky","safe","397","bandit-task","91","375927","0.0-3.0-0.84","27","low"
"86","safe","49","red-30","blue-160","risky","safe","486","bandit-task","92","378767","0.0-3.0-0.85","27","low"
"87","risky","37","red-30","blue-160","risky","safe","862","bandit-task","93","382359","0.0-3.0-0.86","27","low"
"88","safe","50","red-30","blue-160","risky","safe","454","bandit-task","94","385214","0.0-3.0-0.87","27","low"
"89","safe","51","red-30","blue-160","risky","safe","494","bandit-task","95","388351","0.0-3.0-0.88","27","low"
"90","risky","40","red-30","blue-160","risky","safe","1822","bandit-task","96","392743","0.0-3.0-0.89","27","low"
"91","safe","50","red-30","blue-160","risky","safe","598","bandit-task","97","395638","0.0-3.0-0.90","27","low"
"92","safe","50","red-30","blue-160","risky","safe","446","bandit-task","98","399335","0.0-3.0-0.91","27","low"
"93","risky","25","red-30","blue-160","risky","safe","798","bandit-task","99","402590","0.0-3.0-0.92","27","low"
"94","safe","50","red-30","blue-160","risky","safe","478","bandit-task","100","405366","0.0-3.0-0.93","27","low"
"95","safe","50","red-30","blue-160","risky","safe","454","bandit-task","101","408183","0.0-3.0-0.94","27","low"
"96","risky","57","red-30","blue-160","risky","safe","518","bandit-task","102","411142","0.0-3.0-0.95","27","low"
"97","safe","49","red-30","blue-160","risky","safe","487","bandit-task","103","413854","0.0-3.0-0.96","27","low"
"98","safe","50","red-30","blue-160","risky","safe","437","bandit-task","104","416510","0.0-3.0-0.97","27","low"
"99","risky","31","red-30","blue-160","risky","safe","422","bandit-task","105","419750","0.0-3.0-0.98","27","low"
"100","safe","49","red-30","blue-160","risky","safe","390","bandit-task","106","422494","0.0-3.0-0.99","27","low"
"101","safe","50","red-30","blue-160","risky","safe","406","bandit-task","107","425158","0.0-3.0-0.100","27","low"
"102","risky","16","red-30","blue-160","risky","safe","718","bandit-task","108","428366","0.0-3.0-0.101","27","low"
"103","safe","50","red-30","blue-160","risky","safe","542","bandit-task","109","431406","0.0-3.0-0.102","27","low"
"104","safe","51","red-30","blue-160","risky","safe","461","bandit-task","110","434358","0.0-3.0-0.103","27","low"
"105","safe","49","red-30","blue-160","risky","safe","614","bandit-task","111","437286","0.0-3.0-0.104","27","low"
"106","risky","64","red-30","blue-160","risky","safe","406","bandit-task","112","440214","0.0-3.0-0.105","27","low"
"107","safe","48","red-30","blue-160","risky","safe","486","bandit-task","113","443142","0.0-3.0-0.106","27","low"
"108","risky","77","red-30","blue-160","risky","safe","638","bandit-task","114","446181","0.0-3.0-0.107","27","low"
"109","safe","50","red-30","blue-160","risky","safe","1038","bandit-task","115","449525","0.0-3.0-0.108","27","low"
"110","safe","51","red-30","blue-160","risky","safe","606","bandit-task","116","452653","0.0-3.0-0.109","27","low"
