trial,choice,feedback,left_stimulus,right_stimulus,left_option,right_option,rt,trial_type,trial_index,time_elapsed,internal_node_id,participant,condition
1,risky,42,red-50,blue-174,safe,risky,1744,bandit-task,13,567692,0.0-3.0-0.0,119,low
2,safe,52,red-50,blue-174,safe,risky,742,bandit-task,14,570923,0.0-3.0-0.1,119,low
3,safe,49,red-50,blue-174,safe,risky,1015,bandit-task,15,574467,0.0-3.0-0.2,119,low
4,risky,76,red-50,blue-174,safe,risky,567,bandit-task,16,577419,0.0-3.0-0.3,119,low
5,risky,76,red-50,blue-174,safe,risky,575,bandit-task,17,580315,0.0-3.0-0.4,119,low
6,risky,31,red-50,blue-174,safe,risky,527,bandit-task,18,583163,0.0-3.0-0.5,119,low
7,risky,23,red-50,blue-174,safe,risky,975,bandit-task,19,587084,0.0-3.0-0.6,119,low
8,safe,50,red-50,blue-174,safe,risky,750,bandit-task,20,591059,0.0-3.0-0.7,119,low
9,safe,50,red-50,blue-174,safe,risky,462,bandit-task,21,593843,0.0-3.0-0.8,119,low
10,risky,68,red-50,blue-174,safe,risky,502,bandit-task,22,596675,0.0-3.0-0.9,119,low
11,risky,12,red-50,blue-174,safe,risky,351,bandit-task,23,599355,0.0-3.0-0.10,119,low
12,safe,49,red-50,blue-174,safe,risky,438,bandit-task,24,602155,0.0-3.0-0.11,119,low
13,risky,66,red-50,blue-174,safe,risky,478,bandit-task,25,604979,0.0-3.0-0.12,119,low
14,safe,49,red-50,blue-174,safe,risky,374,bandit-task,26,607531,0.0-3.0-0.13,119,low
15,risky,85,red-50,blue-174,safe,risky,814,bandit-task,27,612883,0.0-3.0-0.14,119,low
16,safe,50,red-50,blue-174,safe,risky,822,bandit-task,28,616019,0.0-3.0-0.15,119,low
17,risky,17,red-50,blue-174,safe,risky,366,bandit-task,29,618699,0.0-3.0-0.16,119,low
18,safe,50,red-50,blue-174,safe,risky,558,bandit-task,30,621587,0.0-3.0-0.17,119,low
19,risky,70,red-50,blue-174,safe,risky,357,bandit-task,31,625395,0.0-3.0-0.18,119,low
20,safe,50,red-50,blue-174,safe,risky,629,bandit-task,32,629517,0.0-3.0-0.19,119,low
21,risky,74,red-50,blue-174,safe,risky,718,bandit-task,33,633029,0.0-3.0-0.20,119,low
22,risky,62,red-50,blue-174,safe,risky,415,bandit-task,34,635765,0.0-3.0-0.21,119,low
23,risky,75,red-50,blue-174,safe,risky,350,bandit-task,35,638444,0.0-3.0-0.22,119,low
24,safe,50,red-50,blue-174,safe,risky,343,bandit-task,36,641108,0.0-3.0-0.23,119,low
25,risky,84,red-50,blue-174,safe,risky,327,bandit-task,37,643596,0.0-3.0-0.24,119,low
26,risky,74,red-50,blue-174,safe,risky,751,bandit-task,38,646893,0.0-3.0-0.25,119,low
27,risky,22,red-50,blue-174,safe,risky,318,bandit-task,39,650581,0.0-3.0-0.26,119,low
28,safe,51,red-50,blue-174,safe,risky,342,bandit-task,40,653236,0.0-3.0-0.27,119,low
29,risky,70,red-50,blue-174,safe,risky,390,bandit-task,41,656324,0.0-3.0-0.28,119,low
30,risky,19,red-50,blue-174,safe,risky,783,bandit-task,42,659500,0.0-3.0-0.29,119,low
31,risky,39,red-50,blue-174,safe,risky,431,bandit-task,43,662276,0.0-3.0-0.30,119,low
32,safe,48,red-50,blue-174,safe,risky,359,bandit-task,44,665085,0.0-3.0-0.31,119,low
33,risky,75,red-50,blue-174,safe,risky,526,bandit-task,45,668260,0.0-3.0-0.32,119,low
34,safe,50,red-50,blue-174,safe,risky,327,bandit-task,46,671181,0.0-3.0-0.33,119,low
35,risky,15,red-50,blue-174,safe,risky,374,bandit-task,47,673925,0.0-3.0-0.34,119,low
36,safe,50,red-50,blue-174,safe,risky,359,bandit-task,48,677893,0.0-3.0-0.35,119,low
37,risky,68,red-50,blue-174,safe,risky,318,bandit-task,49,681429,0.0-3.0-0.36,119,low
38,risky,22,red-50,blue-174,safe,risky,742,bandit-task,50,685044,0.0-3.0-0.37,119,low
39,safe,50,red-50,blue-174,safe,risky,719,bandit-task,51,688260,0.0-3.0-0.38,119,low
40,risky,60,red-50,blue-174,safe,risky,367,bandit-task,52,691514,0.0-3.0-0.39,119,low
41,safe,51,red-50,blue-174,safe,risky,822,bandit-task,53,697042,0.0-3.0-0.40,119,low
42,risky,58,red-50,blue-174,safe,risky,349,bandit-task,54,699890,0.0-3.0-0.41,119,low
43,risky,63,red-50,blue-174,safe,risky,294,bandit-task,55,702474,0.0-3.0-0.42,119,low
44,safe,51,red-50,blue-174,safe,risky,334,bandit-task,56,705322,0.0-3.0-0.43,119,low
45,risky,30,red-50,blue-174,safe,risky,350,bandit-task,57,708346,0.0-3.0-0.44,119,low
46,safe,52,red-50,blue-174,safe,risky,486,bandit-task,58,711130,0.0-3.0-0.45,119,low
47,risky,58,red-50,blue-174,safe,risky,486,bandit-task,59,714298,0.0-3.0-0.46,119,low
48,safe,50,red-50,blue-174,safe,risky,430,bandit-task,60,717266,0.0-3.0-0.47,119,low
49,risky,31,red-50,blue-174,safe,risky,342,bandit-task,61,719930,0.0-3.0-0.48,119,low
50,safe,49,red-50,blue-174,safe,risky,358,bandit-task,62,722874,0.0-3.0-0.49,119,low
51,risky,11,red-50,blue-174,safe,risky,830,bandit-task,63,726402,0.0-3.0-0.50,119,low
52,safe,50,red-50,blue-174,safe,risky,302,bandit-task,64,729018,0.0-3.0-0.51,119,low
53,safe,49,red-50,blue-174,safe,risky,470,bandit-task,65,734106,0.0-3.0-0.52,119,low
54,safe,48,red-50,blue-174,safe,risky,390,bandit-task,66,737978,0.0-3.0-0.53,119,low
55,risky,73,red-50,blue-174,safe,risky,518,bandit-task,67,741258,0.0-3.0-0.54,119,low
56,safe,51,red-50,blue-174,safe,risky,398,bandit-task,68,744370,0.0-3.0-0.55,119,low
57,risky,40,red-50,blue-174,safe,risky,334,bandit-task,69,747378,0.0-3.0-0.56,119,low
58,risky,14,red-50,blue-174,safe,risky,606,bandit-task,70,750618,0.0-3.0-0.57,119,low
59,safe,51,red-50,blue-174,safe,risky,310,bandit-task,71,753870,0.0-3.0-0.58,119,low
60,risky,19,red-50,blue-174,safe,risky,638,bandit-task,72,757390,0.0-3.0-0.59,119,low
61,risky,59,red-50,blue-174,safe,risky,829,bandit-task,73,762150,0.0-3.0-0.60,119,low
62,safe,50,red-50,blue-174,safe,risky,430,bandit-task,74,764925,0.0-3.0-0.61,119,low
63,risky,38,red-50,blue-174,safe,risky,399,bandit-task,75,767942,0.0-3.0-0.62,119,low
64,safe,50,red-50,blue-174,safe,risky,550,bandit-task,76,771461,0.0-3.0-0.63,119,low
65,risky,21,red-50,blue-174,safe,risky,670,bandit-task,77,774469,0.0-3.0-0.64,119,low
66,safe,51,red-50,blue-174,safe,risky,798,bandit-task,78,779382,0.0-3.0-0.65,119,low
67,risky,53,red-50,blue-174,safe,risky,830,bandit-task,79,783149,0.0-3.0-0.66,119,low
68,risky,76,red-50,blue-174,safe,risky,1094,bandit-task,80,788502,0.0-3.0-0.67,119,low
69,risky,88,red-50,blue-174,safe,risky,1110,bandit-task,81,793054,0.0-3.0-0.68,119,low
70,risky,25,red-50,blue-174,safe,risky,2230,bandit-task,82,800822,0.0-3.0-0.69,119,low
71,risky,36,red-50,blue-174,safe,risky,262,bandit-task,83,805910,0.0-3.0-0.70,119,low
72,risky,29,red-50,blue-174,safe,risky,302,bandit-task,84,808997,0.0-3.0-0.71,119,low
73,risky,67,red-50,blue-174,safe,risky,311,bandit-task,85,812326,0.0-3.0-0.72,119,low
74,risky,58,red-50,blue-174,safe,risky,325,bandit-task,86,815716,0.0-3.0-0.73,119,low
75,risky,81,red-50,blue-174,safe,risky,286,bandit-task,87,818172,0.0-3.0-0.74,119,low
76,risky,72,red-50,blue-174,safe,risky,390,bandit-task,88,820780,0.0-3.0-0.75,119,low
77,safe,48,red-50,blue-174,safe,risky,462,bandit-task,89,824228,0.0-3.0-0.76,119,low
78,risky,69,red-50,blue-174,safe,risky,1702,bandit-task,90,828428,0.0-3.0-0.77,119,low
79,risky,30,red-50,blue-174,safe,risky,758,bandit-task,91,832316,0.0-3.0-0.78,119,low
80,safe,50,red-50,blue-174,safe,risky,574,bandit-task,92,837284,0.0-3.0-0.79,119,low
81,risky,64,red-50,blue-174,safe,risky,726,bandit-task,93,842692,0.0-3.0-0.80,119,low
82,safe,52,red-50,blue-174,safe,risky,366,bandit-task,94,846652,0.0-3.0-0.81,119,low
83,risky,72,red-50,blue-174,safe,risky,334,bandit-task,95,852908,0.0-3.0-0.82,119,low
84,risky,28,red-50,blue-174,safe,risky,293,bandit-task,96,855676,0.0-3.0-0.83,119,low
85,risky,29,red-50,blue-174,safe,risky,1014,bandit-task,97,859108,0.0-3.0-0.84,119,low
86,risky,27,red-50,blue-174,safe,risky,358,bandit-task,98,862492,0.0-3.0-0.85,119,low
87,safe,50,red-50,blue-174,safe,risky,358,bandit-task,99,865299,0.0-3.0-0.86,119,low
88,risky,30,red-50,blue-174,safe,risky,446,bandit-task,100,869204,0.0-3.0-0.87,119,low
89,safe,49,red-50,blue-174,safe,risky,294,bandit-task,101,871948,0.0-3.0-0.88,119,low
90,safe,53,red-50,blue-174,safe,risky,222,bandit-task,102,874676,0.0-3.0-0.89,119,low
91,risky,78,red-50,blue-174,safe,risky,574,bandit-task,103,877811,0.0-3.0-0.90,119,low
92,risky,71,red-50,blue-174,safe,risky,765,bandit-task,104,881490,0.0-3.0-0.91,119,low
93,risky,79,red-50,blue-174,safe,risky,830,bandit-task,105,884658,0.0-3.0-0.92,119,low
94,risky,18,red-50,blue-174,safe,risky,326,bandit-task,106,887922,0.0-3.0-0.93,119,low
95,risky,37,red-50,blue-174,safe,risky,718,bandit-task,107,892098,0.0-3.0-0.94,119,low
96,safe,52,red-50,blue-174,safe,risky,862,bandit-task,108,896002,0.0-3.0-0.95,119,low
97,risky,74,red-50,blue-174,safe,risky,518,bandit-task,109,899570,0.0-3.0-0.96,119,low
98,risky,27,red-50,blue-174,safe,risky,1222,bandit-task,110,906170,0.0-3.0-0.97,119,low
99,safe,51,red-50,blue-174,safe,risky,2941,bandit-task,111,915562,0.0-3.0-0.98,119,low
100,risky,60,red-50,blue-174,safe,risky,501,bandit-task,112,918938,0.0-3.0-0.99,119,low
101,risky,20,red-50,blue-174,safe,risky,2046,bandit-task,113,923642,0.0-3.0-0.100,119,low
102,safe,50,red-50,blue-174,safe,risky,478,bandit-task,114,926922,0.0-3.0-0.101,119,low
103,risky,69,red-50,blue-174,safe,risky,774,bandit-task,115,930826,0.0-3.0-0.102,119,low
104,risky,77,red-50,blue-174,safe,risky,325,bandit-task,116,936122,0.0-3.0-0.103,119,low
105,risky,28,red-50,blue-174,safe,risky,349,bandit-task,117,938953,0.0-3.0-0.104,119,low
106,risky,75,red-50,blue-174,safe,risky,613,bandit-task,118,943089,0.0-3.0-0.105,119,low
107,risky,74,red-50,blue-174,safe,risky,1822,bandit-task,119,947169,0.0-3.0-0.106,119,low
108,risky,62,red-50,blue-174,safe,risky,461,bandit-task,120,950425,0.0-3.0-0.107,119,low
109,risky,62,red-50,blue-174,safe,risky,542,bandit-task,121,953753,0.0-3.0-0.108,119,low
110,risky,42,red-50,blue-174,safe,risky,350,bandit-task,122,957368,0.0-3.0-0.109,119,low
