"trial","choice","feedback","left_stimulus","right_stimulus","left_option","right_option","rt","trial_type","trial_index","time_elapsed","internal_node_id","participant","condition"
"1","risky","72","red-51","blue-133","safe","risky","4295","bandit-task","7","289627","0.0-3.0-0.0","85","low"
"2","risky","30","red-51","blue-133","safe","risky","6550","bandit-task","8","298923","0.0-3.0-0.1","85","low"
"3","safe","48","red-51","blue-133","safe","risky","5662","bandit-task","9","307539","0.0-3.0-0.2","85","low"
"4","risky","51","red-51","blue-133","safe","risky","6055","bandit-task","10","316258","0.0-3.0-0.3","85","low"
"5","risky","74","red-51","blue-133","safe","risky","3525","bandit-task","11","322690","0.0-3.0-0.4","85","low"
"6","safe","51","red-51","blue-133","safe","risky","1006","bandit-task","12","326306","0.0-3.0-0.5","85","low"
"7","safe","49","red-51","blue-133","safe","risky","2782","bandit-task","13","331874","0.0-3.0-0.6","85","low"
"8","risky","77","red-51","blue-133","safe","risky","1326","bandit-task","14","336122","0.0-3.0-0.7","85","low"
"9","risky","39","red-51","blue-133","safe","risky","2806","bandit-task","15","341650","0.0-3.0-0.8","85","low"
"10","safe","50","red-51","blue-133","safe","risky","1966","bandit-task","16","346562","0.0-3.0-0.9","85","low"
"11","risky","58","red-51","blue-133","safe","risky","2686","bandit-task","17","352026","0.0-3.0-0.10","85","low"
"12","risky","32","red-51","blue-133","safe","risky","1326","bandit-task","18","356066","0.0-3.0-0.11","85","low"
"13","risky","60","red-51","blue-133","safe","risky","1342","bandit-task","19","360626","0.0-3.0-0.12","85","low"
"14","safe","51","red-51","blue-133","safe","risky","1550","bandit-task","20","365187","0.0-3.0-0.13","85","low"
"15","safe","50","red-51","blue-133","safe","risky","2398","bandit-task","21","370115","0.0-3.0-0.14","85","low"
"16","risky","19","red-51","blue-133","safe","risky","1902","bandit-task","22","374802","0.0-3.0-0.15","85","low"
"17","risky","34","red-51","blue-133","safe","risky","1319","bandit-task","23","378819","0.0-3.0-0.16","85","low"
"18","risky","20","red-51","blue-133","safe","risky","7790","bandit-task","24","389522","0.0-3.0-0.17","85","low"
"19","safe","50","red-51","blue-133","safe","risky","1295","bandit-task","25","393714","0.0-3.0-0.18","85","low"
"20","safe","50","red-51","blue-133","safe","risky","1334","bandit-task","26","398114","0.0-3.0-0.19","85","low"
"21","safe","51","red-51","blue-133","safe","risky","733","bandit-task","27","401818","0.0-3.0-0.20","85","low"
"22","risky","79","red-51","blue-133","safe","risky","4206","bandit-task","28","408722","0.0-3.0-0.21","85","low"
"23","safe","51","red-51","blue-133","safe","risky","2174","bandit-task","29","413666","0.0-3.0-0.22","85","low"
"24","safe","49","red-51","blue-133","safe","risky","1342","bandit-task","30","417706","0.0-3.0-0.23","85","low"
"25","risky","40","red-51","blue-133","safe","risky","1550","bandit-task","31","422018","0.0-3.0-0.24","85","low"
"26","safe","50","red-51","blue-133","safe","risky","1686","bandit-task","32","426439","0.0-3.0-0.25","85","low"
"27","safe","51","red-51","blue-133","safe","risky","1086","bandit-task","33","430159","0.0-3.0-0.26","85","low"
"28","safe","49","red-51","blue-133","safe","risky","446","bandit-task","34","433335","0.0-3.0-0.27","85","low"
"29","safe","50","red-51","blue-133","safe","risky","606","bandit-task","35","436423","0.0-3.0-0.28","85","low"
"30","safe","50","red-51","blue-133","safe","risky","614","bandit-task","36","439943","0.0-3.0-0.29","85","low"
"31","risky","43","red-51","blue-133","safe","risky","1110","bandit-task","37","443455","0.0-3.0-0.30","85","low"
"32","safe","49","red-51","blue-133","safe","risky","534","bandit-task","38","446783","0.0-3.0-0.31","85","low"
"33","safe","49","red-51","blue-133","safe","risky","694","bandit-task","39","450231","0.0-3.0-0.32","85","low"
"34","risky","32","red-51","blue-133","safe","risky","566","bandit-task","40","453599","0.0-3.0-0.33","85","low"
"35","safe","51","red-51","blue-133","safe","risky","566","bandit-task","41","456775","0.0-3.0-0.34","85","low"
"36","safe","50","red-51","blue-133","safe","risky","726","bandit-task","42","460255","0.0-3.0-0.35","85","low"
"37","safe","51","red-51","blue-133","safe","risky","622","bandit-task","43","463447","0.0-3.0-0.36","85","low"
"38","safe","49","red-51","blue-133","safe","risky","525","bandit-task","44","466431","0.0-3.0-0.37","85","low"
"39","risky","45","red-51","blue-133","safe","risky","414","bandit-task","45","469495","0.0-3.0-0.38","85","low"
"40","risky","87","red-51","blue-133","safe","risky","430","bandit-task","46","472695","0.0-3.0-0.39","85","low"
"41","risky","43","red-51","blue-133","safe","risky","566","bandit-task","47","475815","0.0-3.0-0.40","85","low"
"42","safe","51","red-51","blue-133","safe","risky","453","bandit-task","48","479367","0.0-3.0-0.41","85","low"
"43","safe","53","red-51","blue-133","safe","risky","1101","bandit-task","49","483566","0.0-3.0-0.42","85","low"
"44","safe","49","red-51","blue-133","safe","risky","1439","bandit-task","50","487770","0.0-3.0-0.43","85","low"
"45","risky","34","red-51","blue-133","safe","risky","447","bandit-task","51","490946","0.0-3.0-0.44","85","low"
"46","risky","19","red-51","blue-133","safe","risky","383","bandit-task","52","494242","0.0-3.0-0.45","85","low"
"47","safe","48","red-51","blue-133","safe","risky","630","bandit-task","53","497330","0.0-3.0-0.46","85","low"
"48","safe","48","red-51","blue-133","safe","risky","439","bandit-task","54","500130","0.0-3.0-0.47","85","low"
"49","safe","50","red-51","blue-133","safe","risky","599","bandit-task","55","503530","0.0-3.0-0.48","85","low"
"50","risky","69","red-51","blue-133","safe","risky","535","bandit-task","56","506802","0.0-3.0-0.49","85","low"
"51","safe","50","red-51","blue-133","safe","risky","445","bandit-task","57","509786","0.0-3.0-0.50","85","low"
"52","risky","82","red-51","blue-133","safe","risky","462","bandit-task","58","512658","0.0-3.0-0.51","85","low"
"53","safe","50","red-51","blue-133","safe","risky","614","bandit-task","59","515666","0.0-3.0-0.52","85","low"
"54","risky","64","red-51","blue-133","safe","risky","374","bandit-task","60","519090","0.0-3.0-0.53","85","low"
"55","safe","50","red-51","blue-133","safe","risky","582","bandit-task","61","522458","0.0-3.0-0.54","85","low"
"56","risky","69","red-51","blue-133","safe","risky","397","bandit-task","62","525698","0.0-3.0-0.55","85","low"
"57","risky","38","red-51","blue-133","safe","risky","838","bandit-task","63","529146","0.0-3.0-0.56","85","low"
"58","safe","50","red-51","blue-133","safe","risky","502","bandit-task","64","531858","0.0-3.0-0.57","85","low"
"59","risky","27","red-51","blue-133","safe","risky","621","bandit-task","65","535066","0.0-3.0-0.58","85","low"
"60","safe","49","red-51","blue-133","safe","risky","446","bandit-task","66","537610","0.0-3.0-0.59","85","low"
"61","safe","50","red-51","blue-133","safe","risky","726","bandit-task","67","540954","0.0-3.0-0.60","85","low"
"62","risky","75","red-51","blue-133","safe","risky","478","bandit-task","68","544210","0.0-3.0-0.61","85","low"
"63","risky","28","red-51","blue-133","safe","risky","1054","bandit-task","69","547936","0.0-3.0-0.62","85","low"
"64","safe","50","red-51","blue-133","safe","risky","398","bandit-task","70","550832","0.0-3.0-0.63","85","low"
"65","safe","50","red-51","blue-133","safe","risky","430","bandit-task","71","553480","0.0-3.0-0.64","85","low"
"66","safe","51","red-51","blue-133","safe","risky","589","bandit-task","72","556896","0.0-3.0-0.65","85","low"
"67","risky","38","red-51","blue-133","safe","risky","590","bandit-task","73","560112","0.0-3.0-0.66","85","low"
"68","safe","52","red-51","blue-133","safe","risky","510","bandit-task","74","563368","0.0-3.0-0.67","85","low"
"69","safe","51","red-51","blue-133","safe","risky","653","bandit-task","75","566568","0.0-3.0-0.68","85","low"
"70","safe","50","red-51","blue-133","safe","risky","750","bandit-task","76","569912","0.0-3.0-0.69","85","low"
"71","risky","69","red-51","blue-133","safe","risky","454","bandit-task","77","573080","0.0-3.0-0.70","85","low"
"72","risky","74","red-51","blue-133","safe","risky","749","bandit-task","78","576816","0.0-3.0-0.71","85","low"
"73","safe","50","red-51","blue-133","safe","risky","718","bandit-task","79","580936","0.0-3.0-0.72","85","low"
"74","safe","49","red-51","blue-133","safe","risky","766","bandit-task","80","587472","0.0-3.0-0.73","85","low"
"75","risky","15","red-51","blue-133","safe","risky","702","bandit-task","81","590944","0.0-3.0-0.74","85","low"
"76","safe","50","red-51","blue-133","safe","risky","374","bandit-task","82","593944","0.0-3.0-0.75","85","low"
"77","safe","50","red-51","blue-133","safe","risky","574","bandit-task","83","596768","0.0-3.0-0.76","85","low"
"78","safe","51","red-51","blue-133","safe","risky","534","bandit-task","84","599840","0.0-3.0-0.77","85","low"
"79","safe","50","red-51","blue-133","safe","risky","486","bandit-task","85","602559","0.0-3.0-0.78","85","low"
"80","risky","78","red-51","blue-133","safe","risky","590","bandit-task","86","605919","0.0-3.0-0.79","85","low"
"81","safe","51","red-51","blue-133","safe","risky","750","bandit-task","87","609389","0.0-3.0-0.80","85","low"
"82","safe","51","red-51","blue-133","safe","risky","846","bandit-task","88","612940","0.0-3.0-0.81","85","low"
"83","risky","31","red-51","blue-133","safe","risky","502","bandit-task","89","616116","0.0-3.0-0.82","85","low"
"84","safe","51","red-51","blue-133","safe","risky","486","bandit-task","90","619325","0.0-3.0-0.83","85","low"
"85","safe","49","red-51","blue-133","safe","risky","566","bandit-task","91","622620","0.0-3.0-0.84","85","low"
"86","safe","49","red-51","blue-133","safe","risky","446","bandit-task","92","625812","0.0-3.0-0.85","85","low"
"87","safe","50","red-51","blue-133","safe","risky","534","bandit-task","93","629036","0.0-3.0-0.86","85","low"
"88","safe","49","red-51","blue-133","safe","risky","582","bandit-task","94","632308","0.0-3.0-0.87","85","low"
"89","risky","40","red-51","blue-133","safe","risky","470","bandit-task","95","635532","0.0-3.0-0.88","85","low"
"90","safe","50","red-51","blue-133","safe","risky","590","bandit-task","96","638932","0.0-3.0-0.89","85","low"
"91","safe","48","red-51","blue-133","safe","risky","486","bandit-task","97","641780","0.0-3.0-0.90","85","low"
"92","risky","32","red-51","blue-133","safe","risky","462","bandit-task","98","644996","0.0-3.0-0.91","85","low"
"93","safe","49","red-51","blue-133","safe","risky","677","bandit-task","99","648132","0.0-3.0-0.92","85","low"
"94","safe","52","red-51","blue-133","safe","risky","1669","bandit-task","100","652348","0.0-3.0-0.93","85","low"
"95","safe","48","red-51","blue-133","safe","risky","621","bandit-task","101","655612","0.0-3.0-0.94","85","low"
"96","risky","22","red-51","blue-133","safe","risky","438","bandit-task","102","658700","0.0-3.0-0.95","85","low"
"97","risky","73","red-51","blue-133","safe","risky","454","bandit-task","103","661860","0.0-3.0-0.96","85","low"
"98","risky","87","red-51","blue-133","safe","risky","3054","bandit-task","104","667564","0.0-3.0-0.97","85","low"
"99","safe","49","red-51","blue-133","safe","risky","606","bandit-task","105","670561","0.0-3.0-0.98","85","low"
"100","safe","50","red-51","blue-133","safe","risky","422","bandit-task","106","673593","0.0-3.0-0.99","85","low"
"101","safe","50","red-51","blue-133","safe","risky","782","bandit-task","107","677312","0.0-3.0-0.100","85","low"
"102","safe","51","red-51","blue-133","safe","risky","566","bandit-task","108","680328","0.0-3.0-0.101","85","low"
"103","risky","40","red-51","blue-133","safe","risky","366","bandit-task","109","683256","0.0-3.0-0.102","85","low"
"104","safe","51","red-51","blue-133","safe","risky","598","bandit-task","110","686416","0.0-3.0-0.103","85","low"
"105","safe","49","red-51","blue-133","safe","risky","541","bandit-task","111","689480","0.0-3.0-0.104","85","low"
"106","risky","67","red-51","blue-133","safe","risky","413","bandit-task","112","692240","0.0-3.0-0.105","85","low"
"107","risky","83","red-51","blue-133","safe","risky","511","bandit-task","113","695368","0.0-3.0-0.106","85","low"
"108","safe","50","red-51","blue-133","safe","risky","557","bandit-task","114","698792","0.0-3.0-0.107","85","low"
"109","safe","48","red-51","blue-133","safe","risky","365","bandit-task","115","702016","0.0-3.0-0.108","85","low"
"110","safe","50","red-51","blue-133","safe","risky","381","bandit-task","116","705160","0.0-3.0-0.109","85","low"
