"trial","choice","feedback","left_stimulus","right_stimulus","left_option","right_option","rt","trial_type","trial_index","time_elapsed","internal_node_id","participant","condition"
"1","risky","57","blue-217","red-98","risky","safe","4583","bandit-task","10","253171","0.0-3.0-0.0","34","high"
"2","safe","50","blue-111","red-20","risky","safe","846","bandit-task","11","256587","0.0-3.0-0.1","34","high"
"3","safe","49","blue-40","red-24","risky","safe","1014","bandit-task","12","259979","0.0-3.0-0.2","34","high"
"4","risky","67","blue-10","red-198","risky","safe","1022","bandit-task","13","263524","0.0-3.0-0.3","34","high"
"5","risky","74","blue-91","red-143","risky","safe","957","bandit-task","14","266835","0.0-3.0-0.4","34","high"
"6","risky","71","blue-136","red-65","risky","safe","694","bandit-task","15","269875","0.0-3.0-0.5","34","high"
"7","risky","76","blue-32","red-148","risky","safe","590","bandit-task","16","272803","0.0-3.0-0.6","34","high"
"8","risky","61","blue-34","red-139","risky","safe","638","bandit-task","17","276075","0.0-3.0-0.7","34","high"
"9","safe","49","blue-68","red-194","risky","safe","749","bandit-task","18","279443","0.0-3.0-0.8","34","high"
"10","risky","63","blue-105","red-33","risky","safe","589","bandit-task","19","283194","0.0-3.0-0.9","34","high"
"11","risky","68","blue-127","red-116","risky","safe","630","bandit-task","20","286138","0.0-3.0-0.10","34","high"
"12","risky","25","blue-77","red-26","risky","safe","613","bandit-task","21","289090","0.0-3.0-0.11","34","high"
"13","risky","73","blue-45","red-125","risky","safe","558","bandit-task","22","292603","0.0-3.0-0.12","34","high"
"14","risky","42","blue-171","red-35","risky","safe","661","bandit-task","23","296450","0.0-3.0-0.13","34","high"
"15","risky","68","blue-201","red-28","risky","safe","950","bandit-task","24","300106","0.0-3.0-0.14","34","high"
"16","risky","37","blue-110","red-222","risky","safe","918","bandit-task","25","303746","0.0-3.0-0.15","34","high"
"17","risky","31","blue-58","red-42","risky","safe","750","bandit-task","26","306914","0.0-3.0-0.16","34","high"
"18","risky","82","blue-83","red-176","risky","safe","589","bandit-task","27","310370","0.0-3.0-0.17","34","high"
"19","risky","21","blue-138","red-25","risky","safe","806","bandit-task","28","314042","0.0-3.0-0.18","34","high"
"20","safe","52","blue-92","red-75","risky","safe","1221","bandit-task","29","318746","0.0-3.0-0.19","34","high"
"21","risky","57","blue-216","red-209","risky","safe","774","bandit-task","30","322122","0.0-3.0-0.20","34","high"
"22","safe","49","blue-6","red-51","risky","safe","910","bandit-task","31","325490","0.0-3.0-0.21","34","high"
"23","risky","66","blue-173","red-16","risky","safe","702","bandit-task","32","328842","0.0-3.0-0.22","34","high"
"24","risky","80","blue-166","red-156","risky","safe","798","bandit-task","33","332338","0.0-3.0-0.23","34","high"
"25","risky","32","blue-106","red-29","risky","safe","1430","bandit-task","34","336546","0.0-3.0-0.24","34","high"
"26","safe","51","blue-123","red-100","risky","safe","1693","bandit-task","35","340558","0.0-3.0-0.25","34","high"
"27","safe","49","blue-121","red-84","risky","safe","1062","bandit-task","36","343942","0.0-3.0-0.26","34","high"
"28","risky","23","blue-167","red-23","risky","safe","766","bandit-task","37","347318","0.0-3.0-0.27","34","high"
"29","safe","49","blue-96","red-163","risky","safe","958","bandit-task","38","351022","0.0-3.0-0.28","34","high"
"30","risky","28","blue-21","red-189","risky","safe","606","bandit-task","39","354174","0.0-3.0-0.29","34","high"
"31","safe","50","blue-57","red-182","risky","safe","958","bandit-task","40","358166","0.0-3.0-0.30","34","high"
"32","risky","23","blue-141","red-13","risky","safe","670","bandit-task","41","361142","0.0-3.0-0.31","34","high"
"33","safe","49","blue-203","red-48","risky","safe","718","bandit-task","42","364342","0.0-3.0-0.32","34","high"
"34","risky","68","blue-85","red-94","risky","safe","678","bandit-task","43","367350","0.0-3.0-0.33","34","high"
"35","risky","28","blue-119","red-192","risky","safe","1430","bandit-task","44","371366","0.0-3.0-0.34","34","high"
"36","safe","48","blue-72","red-205","risky","safe","790","bandit-task","45","375662","0.0-3.0-0.35","34","high"
"37","risky","65","blue-2","red-27","risky","safe","605","bandit-task","46","379438","0.0-3.0-0.36","34","high"
"38","risky","25","blue-131","red-162","risky","safe","750","bandit-task","47","382582","0.0-3.0-0.37","34","high"
"39","risky","17","blue-129","red-197","risky","safe","877","bandit-task","48","385862","0.0-3.0-0.38","34","high"
"40","safe","51","blue-3","red-36","risky","safe","598","bandit-task","49","388790","0.0-3.0-0.39","34","high"
"41","safe","51","blue-74","red-177","risky","safe","678","bandit-task","50","392014","0.0-3.0-0.40","34","high"
"42","safe","50","blue-62","red-1","risky","safe","734","bandit-task","51","395062","0.0-3.0-0.41","34","high"
"43","safe","52","blue-19","red-153","risky","safe","630","bandit-task","52","398206","0.0-3.0-0.42","34","high"
"44","safe","49","blue-172","red-18","risky","safe","678","bandit-task","53","401227","0.0-3.0-0.43","34","high"
"45","risky","60","blue-206","red-137","risky","safe","534","bandit-task","54","404339","0.0-3.0-0.44","34","high"
"46","risky","38","blue-54","red-159","risky","safe","534","bandit-task","55","407443","0.0-3.0-0.45","34","high"
"47","risky","82","blue-60","red-112","risky","safe","702","bandit-task","56","410931","0.0-3.0-0.46","34","high"
"48","risky","68","blue-76","red-133","risky","safe","990","bandit-task","57","414315","0.0-3.0-0.47","34","high"
"49","risky","11","blue-120","red-154","risky","safe","726","bandit-task","58","417635","0.0-3.0-0.48","34","high"
"50","risky","22","blue-195","red-186","risky","safe","502","bandit-task","59","420803","0.0-3.0-0.49","34","high"
"51","safe","50","blue-161","red-87","risky","safe","614","bandit-task","60","423707","0.0-3.0-0.50","34","high"
"52","risky","78","blue-43","red-160","risky","safe","574","bandit-task","61","426579","0.0-3.0-0.51","34","high"
"53","risky","71","blue-53","red-146","risky","safe","478","bandit-task","62","429403","0.0-3.0-0.52","34","high"
"54","risky","80","blue-220","red-81","risky","safe","558","bandit-task","63","432283","0.0-3.0-0.53","34","high"
"55","risky","27","blue-150","red-102","risky","safe","526","bandit-task","64","436579","0.0-3.0-0.54","34","high"
"56","risky","16","blue-175","red-126","risky","safe","782","bandit-task","65","439771","0.0-3.0-0.55","34","high"
"57","risky","51","blue-90","red-9","risky","safe","542","bandit-task","66","443147","0.0-3.0-0.56","34","high"
"58","risky","26","blue-208","red-158","risky","safe","1062","bandit-task","67","447011","0.0-3.0-0.57","34","high"
"59","risky","71","blue-180","red-200","risky","safe","654","bandit-task","68","450051","0.0-3.0-0.58","34","high"
"60","risky","65","blue-109","red-44","risky","safe","621","bandit-task","69","453755","0.0-3.0-0.59","34","high"
"61","risky","29","blue-118","red-31","risky","safe","1006","bandit-task","70","457306","0.0-3.0-0.60","34","high"
"62","risky","30","blue-191","red-89","risky","safe","694","bandit-task","71","460347","0.0-3.0-0.61","34","high"
"63","safe","50","blue-61","red-168","risky","safe","1091","bandit-task","72","463768","0.0-3.0-0.62","34","high"
"64","safe","49","blue-213","red-86","risky","safe","813","bandit-task","73","467248","0.0-3.0-0.63","34","high"
"65","risky","37","blue-88","red-214","risky","safe","542","bandit-task","74","470352","0.0-3.0-0.64","34","high"
"66","risky","75","blue-145","red-46","risky","safe","622","bandit-task","75","473600","0.0-3.0-0.65","34","high"
"67","risky","59","blue-130","red-73","risky","safe","605","bandit-task","76","476624","0.0-3.0-0.66","34","high"
"68","risky","44","blue-8","red-5","risky","safe","582","bandit-task","77","480400","0.0-3.0-0.67","34","high"
"69","safe","50","blue-115","red-49","risky","safe","662","bandit-task","78","483448","0.0-3.0-0.68","34","high"
"70","safe","50","blue-181","red-147","risky","safe","1877","bandit-task","79","487800","0.0-3.0-0.69","34","high"
"71","risky","29","blue-64","red-97","risky","safe","806","bandit-task","80","491104","0.0-3.0-0.70","34","high"
"72","safe","50","blue-152","red-80","risky","safe","1654","bandit-task","81","495520","0.0-3.0-0.71","34","high"
"73","safe","50","blue-122","red-193","risky","safe","902","bandit-task","82","499000","0.0-3.0-0.72","34","high"
"74","risky","10","blue-165","red-67","risky","safe","758","bandit-task","83","502272","0.0-3.0-0.73","34","high"
"75","safe","50","blue-4","red-124","risky","safe","654","bandit-task","84","505712","0.0-3.0-0.74","34","high"
"76","safe","49","blue-108","red-178","risky","safe","910","bandit-task","85","509440","0.0-3.0-0.75","34","high"
"77","risky","65","blue-212","red-79","risky","safe","710","bandit-task","86","512496","0.0-3.0-0.76","34","high"
"78","risky","65","blue-30","red-107","risky","safe","566","bandit-task","87","516088","0.0-3.0-0.77","34","high"
"79","risky","40","blue-69","red-210","risky","safe","734","bandit-task","88","519280","0.0-3.0-0.78","34","high"
"80","safe","50","blue-22","red-164","risky","safe","1078","bandit-task","89","522812","0.0-3.0-0.79","34","high"
"81","safe","50","blue-56","red-41","risky","safe","909","bandit-task","90","526332","0.0-3.0-0.80","34","high"
"82","safe","49","blue-140","red-63","risky","safe","597","bandit-task","91","530372","0.0-3.0-0.81","34","high"
"83","risky","75","blue-113","red-207","risky","safe","501","bandit-task","92","533108","0.0-3.0-0.82","34","high"
"84","safe","50","blue-144","red-11","risky","safe","517","bandit-task","93","536644","0.0-3.0-0.83","34","high"
"85","safe","53","blue-117","red-55","risky","safe","413","bandit-task","94","539524","0.0-3.0-0.84","34","high"
"86","risky","63","blue-12","red-15","risky","safe","630","bandit-task","95","542620","0.0-3.0-0.85","34","high"
"87","safe","51","blue-169","red-188","risky","safe","430","bandit-task","96","545348","0.0-3.0-0.86","34","high"
"88","safe","49","blue-202","red-185","risky","safe","453","bandit-task","97","548372","0.0-3.0-0.87","34","high"
"89","risky","45","blue-184","red-78","risky","safe","342","bandit-task","98","551220","0.0-3.0-0.88","34","high"
"90","safe","50","blue-134","red-82","risky","safe","638","bandit-task","99","554764","0.0-3.0-0.89","34","high"
"91","risky","35","blue-47","red-66","risky","safe","613","bandit-task","100","557868","0.0-3.0-0.90","34","high"
"92","safe","50","blue-14","red-149","risky","safe","846","bandit-task","101","561524","0.0-3.0-0.91","34","high"
"93","safe","50","blue-50","red-157","risky","safe","829","bandit-task","102","565732","0.0-3.0-0.92","34","high"
"94","safe","50","blue-39","red-128","risky","safe","805","bandit-task","103","568836","0.0-3.0-0.93","34","high"
"95","safe","49","blue-103","red-218","risky","safe","758","bandit-task","104","572620","0.0-3.0-0.94","34","high"
"96","safe","51","blue-37","red-95","risky","safe","1022","bandit-task","105","576276","0.0-3.0-0.95","34","high"
"97","safe","51","blue-142","red-179","risky","safe","822","bandit-task","106","580556","0.0-3.0-0.96","34","high"
"98","safe","51","blue-151","red-211","risky","safe","590","bandit-task","107","583626","0.0-3.0-0.97","34","high"
"99","safe","51","blue-38","red-219","risky","safe","854","bandit-task","108","587730","0.0-3.0-0.98","34","high"
"100","safe","51","blue-93","red-155","risky","safe","710","bandit-task","109","591858","0.0-3.0-0.99","34","high"
"101","safe","49","blue-204","red-114","risky","safe","693","bandit-task","110","594906","0.0-3.0-0.100","34","high"
"102","safe","50","blue-221","red-17","risky","safe","1062","bandit-task","111","598346","0.0-3.0-0.101","34","high"
"103","safe","51","blue-71","red-215","risky","safe","822","bandit-task","112","602402","0.0-3.0-0.102","34","high"
"104","safe","50","blue-196","red-7","risky","safe","525","bandit-task","113","606226","0.0-3.0-0.103","34","high"
"105","safe","48","blue-52","red-104","risky","safe","1566","bandit-task","114","610226","0.0-3.0-0.104","34","high"
"106","safe","51","blue-132","red-70","risky","safe","549","bandit-task","115","613706","0.0-3.0-0.105","34","high"
"107","safe","48","blue-101","red-199","risky","safe","918","bandit-task","116","617226","0.0-3.0-0.106","34","high"
"108","safe","51","blue-187","red-59","risky","safe","782","bandit-task","117","621298","0.0-3.0-0.107","34","high"
"109","safe","50","blue-174","red-190","risky","safe","837","bandit-task","118","625441","0.0-3.0-0.108","34","high"
"110","safe","49","blue-170","red-135","risky","safe","646","bandit-task","119","628945","0.0-3.0-0.109","34","high"
