"trial","choice","feedback","left_stimulus","right_stimulus","left_option","right_option","rt","trial_type","trial_index","time_elapsed","internal_node_id","participant","condition"
"1","safe","50","blue-19","red-104","risky","safe","2168","bandit-task","13","316920","0.0-3.0-0.0","91","high"
"2","safe","48","blue-25","red-22","risky","safe","1310","bandit-task","14","320616","0.0-3.0-0.1","91","high"
"3","risky","84","blue-49","red-123","risky","safe","1502","bandit-task","15","324880","0.0-3.0-0.2","91","high"
"4","safe","52","blue-199","red-215","risky","safe","934","bandit-task","16","328688","0.0-3.0-0.3","91","high"
"5","safe","50","blue-210","red-157","risky","safe","1695","bandit-task","17","333104","0.0-3.0-0.4","91","high"
"6","risky","26","blue-175","red-41","risky","safe","1062","bandit-task","18","337008","0.0-3.0-0.5","91","high"
"7","safe","50","blue-133","red-173","risky","safe","719","bandit-task","19","340343","0.0-3.0-0.6","91","high"
"8","risky","62","blue-46","red-53","risky","safe","806","bandit-task","20","343856","0.0-3.0-0.7","91","high"
"9","risky","34","blue-130","red-59","risky","safe","1263","bandit-task","21","347815","0.0-3.0-0.8","91","high"
"10","risky","25","blue-218","red-1","risky","safe","1238","bandit-task","22","351479","0.0-3.0-0.9","91","high"
"11","safe","50","blue-7","red-189","risky","safe","735","bandit-task","23","355071","0.0-3.0-0.10","91","high"
"12","risky","61","blue-169","red-97","risky","safe","854","bandit-task","24","358663","0.0-3.0-0.11","91","high"
"13","safe","50","blue-102","red-92","risky","safe","631","bandit-task","25","362119","0.0-3.0-0.12","91","high"
"14","safe","49","blue-179","red-125","risky","safe","678","bandit-task","26","365503","0.0-3.0-0.13","91","high"
"15","risky","29","blue-18","red-121","risky","safe","679","bandit-task","27","369367","0.0-3.0-0.14","91","high"
"16","safe","51","blue-107","red-146","risky","safe","621","bandit-task","28","372655","0.0-3.0-0.15","91","high"
"17","safe","51","blue-99","red-209","risky","safe","430","bandit-task","29","376063","0.0-3.0-0.16","91","high"
"18","safe","50","blue-70","red-186","risky","safe","566","bandit-task","30","379215","0.0-3.0-0.17","91","high"
"19","risky","37","blue-185","red-94","risky","safe","606","bandit-task","31","382479","0.0-3.0-0.18","91","high"
"20","safe","49","blue-221","red-86","risky","safe","525","bandit-task","32","386159","0.0-3.0-0.19","91","high"
"21","safe","50","blue-78","red-26","risky","safe","1006","bandit-task","33","390471","0.0-3.0-0.20","91","high"
"22","safe","50","blue-187","red-145","risky","safe","822","bandit-task","34","394031","0.0-3.0-0.21","91","high"
"23","risky","67","blue-170","red-16","risky","safe","654","bandit-task","35","397927","0.0-3.0-0.22","91","high"
"24","risky","60","blue-103","red-184","risky","safe","1062","bandit-task","36","404647","0.0-3.0-0.23","91","high"
"25","safe","51","blue-222","red-37","risky","safe","774","bandit-task","37","408447","0.0-3.0-0.24","91","high"
"26","risky","81","blue-194","red-57","risky","safe","727","bandit-task","38","411599","0.0-3.0-0.25","91","high"
"27","risky","66","blue-33","red-159","risky","safe","790","bandit-task","39","415223","0.0-3.0-0.26","91","high"
"28","safe","49","blue-85","red-216","risky","safe","599","bandit-task","40","418510","0.0-3.0-0.27","91","high"
"29","risky","17","blue-161","red-190","risky","safe","734","bandit-task","41","422278","0.0-3.0-0.28","91","high"
"30","safe","50","blue-90","red-8","risky","safe","527","bandit-task","42","425485","0.0-3.0-0.29","91","high"
"31","safe","50","blue-3","red-63","risky","safe","590","bandit-task","43","428742","0.0-3.0-0.30","91","high"
"32","safe","52","blue-111","red-89","risky","safe","543","bandit-task","44","432702","0.0-3.0-0.31","91","high"
"33","risky","68","blue-96","red-105","risky","safe","894","bandit-task","45","436133","0.0-3.0-0.32","91","high"
"34","safe","49","blue-117","red-213","risky","safe","639","bandit-task","46","439413","0.0-3.0-0.33","91","high"
"35","safe","49","blue-15","red-58","risky","safe","686","bandit-task","47","443085","0.0-3.0-0.34","91","high"
"36","safe","49","blue-28","red-20","risky","safe","823","bandit-task","48","446485","0.0-3.0-0.35","91","high"
"37","safe","48","blue-81","red-108","risky","safe","574","bandit-task","49","449765","0.0-3.0-0.36","91","high"
"38","risky","28","blue-164","red-138","risky","safe","623","bandit-task","50","453117","0.0-3.0-0.37","91","high"
"39","risky","64","blue-82","red-55","risky","safe","687","bandit-task","51","456221","0.0-3.0-0.38","91","high"
"40","risky","69","blue-150","red-54","risky","safe","1022","bandit-task","52","460141","0.0-3.0-0.39","91","high"
"41","risky","66","blue-64","red-148","risky","safe","693","bandit-task","53","464765","0.0-3.0-0.40","91","high"
"42","risky","38","blue-176","red-79","risky","safe","758","bandit-task","54","468245","0.0-3.0-0.41","91","high"
"43","safe","50","blue-154","red-84","risky","safe","726","bandit-task","55","471581","0.0-3.0-0.42","91","high"
"44","risky","53","blue-29","red-88","risky","safe","702","bandit-task","56","475181","0.0-3.0-0.43","91","high"
"45","risky","52","blue-195","red-153","risky","safe","1054","bandit-task","57","478917","0.0-3.0-0.44","91","high"
"46","safe","51","blue-11","red-95","risky","safe","598","bandit-task","58","482341","0.0-3.0-0.45","91","high"
"47","risky","67","blue-23","red-66","risky","safe","622","bandit-task","59","485620","0.0-3.0-0.46","91","high"
"48","risky","66","blue-128","red-198","risky","safe","886","bandit-task","60","489747","0.0-3.0-0.47","91","high"
"49","risky","30","blue-4","red-116","risky","safe","1326","bandit-task","61","493883","0.0-3.0-0.48","91","high"
"50","safe","49","blue-9","red-74","risky","safe","598","bandit-task","62","497243","0.0-3.0-0.49","91","high"
"51","safe","48","blue-12","red-48","risky","safe","695","bandit-task","63","500732","0.0-3.0-0.50","91","high"
"52","risky","43","blue-182","red-62","risky","safe","582","bandit-task","64","504475","0.0-3.0-0.51","91","high"
"53","risky","69","blue-203","red-51","risky","safe","719","bandit-task","65","507947","0.0-3.0-0.52","91","high"
"54","safe","51","blue-109","red-13","risky","safe","759","bandit-task","66","511435","0.0-3.0-0.53","91","high"
"55","safe","51","blue-177","red-220","risky","safe","558","bandit-task","67","514659","0.0-3.0-0.54","91","high"
"56","safe","50","blue-152","red-149","risky","safe","573","bandit-task","68","518251","0.0-3.0-0.55","91","high"
"57","risky","33","blue-124","red-10","risky","safe","550","bandit-task","69","523523","0.0-3.0-0.56","91","high"
"58","safe","51","blue-140","red-93","risky","safe","653","bandit-task","70","528275","0.0-3.0-0.57","91","high"
"59","risky","34","blue-127","red-40","risky","safe","622","bandit-task","71","532107","0.0-3.0-0.58","91","high"
"60","safe","49","blue-142","red-144","risky","safe","974","bandit-task","72","536291","0.0-3.0-0.59","91","high"
"61","risky","56","blue-202","red-47","risky","safe","926","bandit-task","73","539955","0.0-3.0-0.60","91","high"
"62","safe","52","blue-204","red-43","risky","safe","701","bandit-task","74","543579","0.0-3.0-0.61","91","high"
"63","risky","33","blue-100","red-61","risky","safe","654","bandit-task","75","546786","0.0-3.0-0.62","91","high"
"64","safe","51","blue-165","red-208","risky","safe","566","bandit-task","76","549938","0.0-3.0-0.63","91","high"
"65","safe","50","blue-114","red-219","risky","safe","805","bandit-task","77","557882","0.0-3.0-0.64","91","high"
"66","safe","49","blue-207","red-73","risky","safe","629","bandit-task","78","562522","0.0-3.0-0.65","91","high"
"67","risky","31","blue-205","red-42","risky","safe","686","bandit-task","79","565746","0.0-3.0-0.66","91","high"
"68","safe","48","blue-172","red-6","risky","safe","502","bandit-task","80","569402","0.0-3.0-0.67","91","high"
"69","risky","78","blue-192","red-72","risky","safe","958","bandit-task","81","573242","0.0-3.0-0.68","91","high"
"70","risky","38","blue-135","red-60","risky","safe","590","bandit-task","82","577897","0.0-3.0-0.69","91","high"
"71","risky","42","blue-44","red-80","risky","safe","926","bandit-task","83","581345","0.0-3.0-0.70","91","high"
"72","safe","52","blue-120","red-56","risky","safe","558","bandit-task","84","587722","0.0-3.0-0.71","91","high"
"73","safe","49","blue-136","red-166","risky","safe","1005","bandit-task","85","591297","0.0-3.0-0.72","91","high"
"74","risky","27","blue-191","red-115","risky","safe","726","bandit-task","86","594993","0.0-3.0-0.73","91","high"
"75","safe","48","blue-155","red-183","risky","safe","766","bandit-task","87","598513","0.0-3.0-0.74","91","high"
"76","risky","22","blue-132","red-118","risky","safe","807","bandit-task","88","602065","0.0-3.0-0.75","91","high"
"77","safe","50","blue-217","red-206","risky","safe","813","bandit-task","89","605609","0.0-3.0-0.76","91","high"
"78","safe","48","blue-168","red-158","risky","safe","1099","bandit-task","90","609462","0.0-3.0-0.77","91","high"
"79","risky","71","blue-160","red-211","risky","safe","838","bandit-task","91","613590","0.0-3.0-0.78","91","high"
"80","safe","49","blue-178","red-171","risky","safe","966","bandit-task","92","617574","0.0-3.0-0.79","91","high"
"81","risky","35","blue-91","red-193","risky","safe","718","bandit-task","93","620789","0.0-3.0-0.80","91","high"
"82","safe","48","blue-181","red-14","risky","safe","766","bandit-task","94","624334","0.0-3.0-0.81","91","high"
"83","risky","81","blue-38","red-119","risky","safe","982","bandit-task","95","627941","0.0-3.0-0.82","91","high"
"84","safe","49","blue-106","red-134","risky","safe","845","bandit-task","96","631765","0.0-3.0-0.83","91","high"
"85","risky","32","blue-2","red-77","risky","safe","709","bandit-task","97","635213","0.0-3.0-0.84","91","high"
"86","safe","51","blue-196","red-98","risky","safe","661","bandit-task","98","638485","0.0-3.0-0.85","91","high"
"87","safe","51","blue-143","red-129","risky","safe","789","bandit-task","99","641949","0.0-3.0-0.86","91","high"
"88","risky","39","blue-24","red-188","risky","safe","942","bandit-task","100","645613","0.0-3.0-0.87","91","high"
"89","safe","49","blue-201","red-35","risky","safe","613","bandit-task","101","648741","0.0-3.0-0.88","91","high"
"90","safe","52","blue-212","red-67","risky","safe","813","bandit-task","102","652381","0.0-3.0-0.89","91","high"
"91","safe","50","blue-31","red-75","risky","safe","622","bandit-task","103","655845","0.0-3.0-0.90","91","high"
"92","safe","49","blue-32","red-68","risky","safe","533","bandit-task","104","659365","0.0-3.0-0.91","91","high"
"93","risky","78","blue-36","red-122","risky","safe","669","bandit-task","105","662629","0.0-3.0-0.92","91","high"
"94","risky","31","blue-162","red-131","risky","safe","949","bandit-task","106","666277","0.0-3.0-0.93","91","high"
"95","safe","51","blue-65","red-27","risky","safe","518","bandit-task","107","669589","0.0-3.0-0.94","91","high"
"96","safe","50","blue-5","red-113","risky","safe","966","bandit-task","108","673701","0.0-3.0-0.95","91","high"
"97","safe","52","blue-197","red-156","risky","safe","797","bandit-task","109","677117","0.0-3.0-0.96","91","high"
"98","safe","52","blue-101","red-69","risky","safe","646","bandit-task","110","680149","0.0-3.0-0.97","91","high"
"99","safe","48","blue-167","red-174","risky","safe","702","bandit-task","111","683469","0.0-3.0-0.98","91","high"
"100","risky","68","blue-110","red-141","risky","safe","558","bandit-task","112","686693","0.0-3.0-0.99","91","high"
"101","safe","50","blue-112","red-137","risky","safe","614","bandit-task","113","690037","0.0-3.0-0.100","91","high"
"102","risky","45","blue-163","red-17","risky","safe","565","bandit-task","114","693589","0.0-3.0-0.101","91","high"
"103","safe","51","blue-30","red-71","risky","safe","822","bandit-task","115","697461","0.0-3.0-0.102","91","high"
"104","safe","50","blue-214","red-83","risky","safe","926","bandit-task","116","700924","0.0-3.0-0.103","91","high"
"105","safe","51","blue-87","red-151","risky","safe","574","bandit-task","117","704324","0.0-3.0-0.104","91","high"
"106","safe","51","blue-180","red-52","risky","safe","614","bandit-task","118","707533","0.0-3.0-0.105","91","high"
"107","safe","50","blue-147","red-45","risky","safe","542","bandit-task","119","711036","0.0-3.0-0.106","91","high"
"108","safe","50","blue-139","red-34","risky","safe","1294","bandit-task","120","715125","0.0-3.0-0.107","91","high"
"109","risky","49","blue-21","red-200","risky","safe","670","bandit-task","121","718596","0.0-3.0-0.108","91","high"
"110","safe","52","blue-39","red-76","risky","safe","1134","bandit-task","122","722300","0.0-3.0-0.109","91","high"
