"trial","choice","feedback","left_stimulus","right_stimulus","left_option","right_option","rt","distribution","trial_type","trial_index","time_elapsed","internal_node_id","participant","condition"
"1","safe","50","blue-33","red-101","risky","safe","1798","4","bandit-task","3","55907","0.0-3.0-0.0","120","high"
"2","risky","32","blue-108","red-59","risky","safe","2991","4","bandit-task","4","61731","0.0-3.0-0.1","120","high"
"3","safe","51","blue-145","red-17","risky","safe","2198","4","bandit-task","5","66979","0.0-3.0-0.2","120","high"
"4","safe","49","blue-214","red-153","risky","safe","1662","4","bandit-task","6","71595","0.0-3.0-0.3","120","high"
"5","safe","50","blue-163","red-57","risky","safe","775","4","bandit-task","7","75050","0.0-3.0-0.4","120","high"
"6","safe","51","blue-130","red-82","risky","safe","967","4","bandit-task","8","78786","0.0-3.0-0.5","120","high"
"7","risky","52","blue-9","red-75","risky","safe","2775","4","bandit-task","9","86266","0.0-3.0-0.6","120","high"
"8","safe","51","blue-171","red-137","risky","safe","5934","4","bandit-task","10","95906","0.0-3.0-0.7","120","high"
"9","safe","49","blue-158","red-183","risky","safe","1535","4","bandit-task","11","100065","0.0-3.0-0.8","120","high"
"10","safe","48","blue-104","red-89","risky","safe","1759","4","bandit-task","12","104537","0.0-3.0-0.9","120","high"
"11","risky","48","blue-204","red-46","risky","safe","1838","4","bandit-task","13","109129","0.0-3.0-0.10","120","high"
"12","safe","51","blue-30","red-49","risky","safe","2230","4","bandit-task","14","113936","0.0-3.0-0.11","120","high"
"13","risky","44","blue-187","red-3","risky","safe","4804","4","bandit-task","15","121670","0.0-3.0-0.12","120","high"
"14","safe","50","blue-26","red-192","risky","safe","3917","4","bandit-task","16","128350","0.0-3.0-0.13","120","high"
"15","safe","48","blue-11","red-25","risky","safe","7215","4","bandit-task","17","138165","0.0-3.0-0.14","120","high"
"16","safe","49","blue-178","red-61","risky","safe","847","4","bandit-task","18","141405","0.0-3.0-0.15","120","high"
"17","safe","51","blue-177","red-182","risky","safe","502","4","bandit-task","19","144317","0.0-3.0-0.16","120","high"
"18","safe","50","blue-41","red-8","risky","safe","558","4","bandit-task","20","147285","0.0-3.0-0.17","120","high"
"19","safe","50","blue-67","red-186","risky","safe","446","4","bandit-task","21","150253","0.0-3.0-0.18","120","high"
"20","safe","50","blue-45","red-166","risky","safe","398","4","bandit-task","22","153029","0.0-3.0-0.19","120","high"
"21","safe","51","blue-181","red-113","risky","safe","534","4","bandit-task","23","156284","0.0-3.0-0.20","120","high"
"22","safe","50","blue-148","red-58","risky","safe","1951","4","bandit-task","24","160572","0.0-3.0-0.21","120","high"
"23","safe","50","blue-32","red-157","risky","safe","438","4","bandit-task","25","163404","0.0-3.0-0.22","120","high"
"24","safe","50","blue-15","red-5","risky","safe","486","4","bandit-task","26","166364","0.0-3.0-0.23","120","high"
"25","risky","49","blue-38","red-7","risky","safe","854","4","bandit-task","27","169708","0.0-3.0-0.24","120","high"
"26","risky","60","blue-162","red-19","risky","safe","455","4","bandit-task","28","173804","0.0-3.0-0.25","120","high"
"27","risky","62","blue-39","red-50","risky","safe","958","4","bandit-task","29","177155","0.0-3.0-0.26","120","high"
"28","safe","49","blue-4","red-126","risky","safe","599","4","bandit-task","30","180273","0.0-3.0-0.27","120","high"
"29","risky","30","blue-175","red-156","risky","safe","519","4","bandit-task","31","183466","0.0-3.0-0.28","120","high"
"30","risky","38","blue-194","red-20","risky","safe","661","4","bandit-task","32","186785","0.0-3.0-0.29","120","high"
"31","risky","51","blue-47","red-196","risky","safe","607","4","bandit-task","33","189792","0.0-3.0-0.30","120","high"
"32","risky","59","blue-12","red-207","risky","safe","543","4","bandit-task","34","192712","0.0-3.0-0.31","120","high"
"33","risky","55","blue-110","red-216","risky","safe","422","4","bandit-task","35","195617","0.0-3.0-0.32","120","high"
"34","risky","56","blue-121","red-169","risky","safe","463","4","bandit-task","36","198216","0.0-3.0-0.33","120","high"
"35","safe","48","blue-56","red-219","risky","safe","2022","4","bandit-task","37","202912","0.0-3.0-0.34","120","high"
"36","risky","29","blue-64","red-85","risky","safe","550","4","bandit-task","38","206032","0.0-3.0-0.35","120","high"
"37","risky","57","blue-99","red-172","risky","safe","582","4","bandit-task","39","209456","0.0-3.0-0.36","120","high"
"38","risky","65","blue-200","red-191","risky","safe","1670","4","bandit-task","40","214015","0.0-3.0-0.37","120","high"
"39","risky","53","blue-149","red-144","risky","safe","623","4","bandit-task","41","217175","0.0-3.0-0.38","120","high"
"40","risky","42","blue-115","red-155","risky","safe","702","4","bandit-task","42","220287","0.0-3.0-0.39","120","high"
"41","safe","51","blue-109","red-127","risky","safe","1606","4","bandit-task","43","225855","0.0-3.0-0.40","120","high"
"42","safe","52","blue-197","red-164","risky","safe","958","4","bandit-task","44","229263","0.0-3.0-0.41","120","high"
"43","safe","51","blue-123","red-129","risky","safe","502","4","bandit-task","45","232183","0.0-3.0-0.42","120","high"
"44","safe","49","blue-152","red-53","risky","safe","406","4","bandit-task","46","234983","0.0-3.0-0.43","120","high"
"45","safe","51","blue-62","red-92","risky","safe","471","4","bandit-task","47","237830","0.0-3.0-0.44","120","high"
"46","safe","49","blue-185","red-124","risky","safe","494","4","bandit-task","48","240960","0.0-3.0-0.45","120","high"
"47","safe","49","blue-18","red-139","risky","safe","470","4","bandit-task","49","243792","0.0-3.0-0.46","120","high"
"48","safe","49","blue-76","red-83","risky","safe","486","4","bandit-task","50","246688","0.0-3.0-0.47","120","high"
"49","risky","23","blue-31","red-98","risky","safe","566","4","bandit-task","51","249712","0.0-3.0-0.48","120","high"
"50","risky","20","blue-147","red-140","risky","safe","582","4","bandit-task","52","252712","0.0-3.0-0.49","120","high"
"51","risky","55","blue-102","red-189","risky","safe","590","4","bandit-task","53","255840","0.0-3.0-0.50","120","high"
"52","risky","48","blue-220","red-1","risky","safe","486","4","bandit-task","54","258968","0.0-3.0-0.51","120","high"
"53","risky","67","blue-21","red-111","risky","safe","487","4","bandit-task","55","261999","0.0-3.0-0.52","120","high"
"54","risky","80","blue-13","red-68","risky","safe","438","4","bandit-task","56","264863","0.0-3.0-0.53","120","high"
"55","risky","46","blue-170","red-212","risky","safe","973","4","bandit-task","57","268575","0.0-3.0-0.54","120","high"
"56","risky","61","blue-114","red-65","risky","safe","726","4","bandit-task","58","271823","0.0-3.0-0.55","120","high"
"57","risky","31","blue-40","red-218","risky","safe","454","4","bandit-task","59","274903","0.0-3.0-0.56","120","high"
"58","risky","65","blue-143","red-14","risky","safe","510","4","bandit-task","60","278543","0.0-3.0-0.57","120","high"
"59","risky","31","blue-44","red-35","risky","safe","918","4","bandit-task","61","282710","0.0-3.0-0.58","120","high"
"60","risky","52","blue-199","red-27","risky","safe","2774","4","bandit-task","62","288038","0.0-3.0-0.59","120","high"
"61","risky","35","blue-16","red-146","risky","safe","1606","4","bandit-task","63","292094","0.0-3.0-0.60","120","high"
"62","risky","34","blue-151","red-42","risky","safe","1686","4","bandit-task","64","296206","0.0-3.0-0.61","120","high"
"63","risky","29","blue-138","red-60","risky","safe","1534","4","bandit-task","65","300174","0.0-3.0-0.62","120","high"
"64","safe","51","blue-70","red-48","risky","safe","2762","4","bandit-task","66","305954","0.0-3.0-0.63","120","high"
"65","risky","34","blue-213","red-150","risky","safe","5918","4","bandit-task","67","314561","0.0-3.0-0.64","120","high"
"66","risky","40","blue-142","red-6","risky","safe","1790","4","bandit-task","68","318769","0.0-3.0-0.65","120","high"
"67","risky","47","blue-90","red-10","risky","safe","2630","4","bandit-task","69","325344","0.0-3.0-0.66","120","high"
"68","safe","50","blue-141","red-97","risky","safe","7079","4","bandit-task","70","335096","0.0-3.0-0.67","120","high"
"69","safe","50","blue-209","red-167","risky","safe","1110","4","bandit-task","71","338680","0.0-3.0-0.68","120","high"
"70","risky","55","blue-131","red-193","risky","safe","2061","4","bandit-task","72","343152","0.0-3.0-0.69","120","high"
"71","safe","52","blue-173","red-86","risky","safe","3998","4","bandit-task","73","349544","0.0-3.0-0.70","120","high"
"72","risky","45","blue-125","red-80","risky","safe","1334","4","bandit-task","74","353599","0.0-3.0-0.71","120","high"
"73","safe","51","blue-52","red-29","risky","safe","1087","4","bandit-task","75","357135","0.0-3.0-0.72","120","high"
"74","safe","49","blue-34","red-217","risky","safe","3734","4","bandit-task","76","363311","0.0-3.0-0.73","120","high"
"75","risky","76","blue-188","red-37","risky","safe","1247","4","bandit-task","77","366999","0.0-3.0-0.74","120","high"
"76","safe","48","blue-112","red-202","risky","safe","2301","4","bandit-task","78","371711","0.0-3.0-0.75","120","high"
"77","risky","23","blue-195","red-198","risky","safe","4134","4","bandit-task","79","378767","0.0-3.0-0.76","120","high"
"78","risky","30","blue-74","red-66","risky","safe","2606","4","bandit-task","80","383846","0.0-3.0-0.77","120","high"
"79","safe","50","blue-54","red-77","risky","safe","1078","4","bandit-task","81","387302","0.0-3.0-0.78","120","high"
"80","safe","50","blue-100","red-179","risky","safe","463","4","bandit-task","82","390142","0.0-3.0-0.79","120","high"
"81","risky","63","blue-91","red-72","risky","safe","1221","4","bandit-task","83","394094","0.0-3.0-0.80","120","high"
"82","risky","42","blue-79","red-174","risky","safe","1222","4","bandit-task","84","397734","0.0-3.0-0.81","120","high"
"83","risky","54","blue-96","red-122","risky","safe","470","4","bandit-task","85","400662","0.0-3.0-0.82","120","high"
"84","safe","50","blue-184","red-81","risky","safe","1054","4","bandit-task","86","404397","0.0-3.0-0.83","120","high"
"85","safe","50","blue-132","red-128","risky","safe","1143","4","bandit-task","87","407949","0.0-3.0-0.84","120","high"
"86","safe","50","blue-176","red-190","risky","safe","1119","4","bandit-task","88","411629","0.0-3.0-0.85","120","high"
"87","risky","69","blue-73","red-55","risky","safe","765","4","bandit-task","89","415485","0.0-3.0-0.86","120","high"
"88","safe","50","blue-87","red-201","risky","safe","2262","4","bandit-task","90","420197","0.0-3.0-0.87","120","high"
"89","risky","33","blue-95","red-28","risky","safe","1798","4","bandit-task","91","424687","0.0-3.0-0.88","120","high"
"90","risky","47","blue-63","red-118","risky","safe","1765","4","bandit-task","92","428815","0.0-3.0-0.89","120","high"
"91","safe","51","blue-51","red-210","risky","safe","1342","4","bandit-task","93","432903","0.0-3.0-0.90","120","high"
"92","safe","51","blue-106","red-136","risky","safe","1885","4","bandit-task","94","437950","0.0-3.0-0.91","120","high"
"93","safe","50","blue-119","red-23","risky","safe","2118","4","bandit-task","95","442478","0.0-3.0-0.92","120","high"
"94","safe","51","blue-133","red-93","risky","safe","1022","4","bandit-task","96","446966","0.0-3.0-0.93","120","high"
"95","safe","49","blue-211","red-24","risky","safe","3694","4","bandit-task","97","453302","0.0-3.0-0.94","120","high"
"96","safe","49","blue-215","red-103","risky","safe","4822","4","bandit-task","98","460637","0.0-3.0-0.95","120","high"
"97","safe","51","blue-69","red-168","risky","safe","3126","4","bandit-task","99","466573","0.0-3.0-0.96","120","high"
"98","safe","50","blue-208","red-105","risky","safe","1942","4","bandit-task","100","470901","0.0-3.0-0.97","120","high"
"99","safe","50","blue-117","red-22","risky","safe","1326","4","bandit-task","101","474621","0.0-3.0-0.98","120","high"
"100","safe","49","blue-203","red-165","risky","safe","1158","4","bandit-task","102","478189","0.0-3.0-0.99","120","high"
"101","safe","51","blue-116","red-107","risky","safe","606","4","bandit-task","103","481221","0.0-3.0-0.100","120","high"
"102","safe","49","blue-161","red-205","risky","safe","598","4","bandit-task","104","484212","0.0-3.0-0.101","120","high"
"103","safe","49","blue-180","red-94","risky","safe","673","4","bandit-task","105","487255","0.0-3.0-0.102","120","high"
"104","safe","51","blue-43","red-120","risky","safe","574","4","bandit-task","106","490239","0.0-3.0-0.103","120","high"
"105","safe","49","blue-159","red-78","risky","safe","461","4","bandit-task","107","493167","0.0-3.0-0.104","120","high"
"106","safe","50","blue-84","red-135","risky","safe","438","4","bandit-task","108","496007","0.0-3.0-0.105","120","high"
"107","safe","51","blue-134","red-36","risky","safe","389","4","bandit-task","109","498807","0.0-3.0-0.106","120","high"
"108","safe","51","blue-2","red-154","risky","safe","382","4","bandit-task","110","501790","0.0-3.0-0.107","120","high"
"109","safe","50","blue-88","red-160","risky","safe","414","4","bandit-task","111","504758","0.0-3.0-0.108","120","high"
"110","safe","50","blue-206","red-71","risky","safe","479","4","bandit-task","112","507838","0.0-3.0-0.109","120","high"
