"trial","choice","feedback","left_stimulus","right_stimulus","left_option","right_option","rt","distribution","trial_type","trial_index","time_elapsed","internal_node_id","participant","condition"
"1","safe","50","blue-12","red-210","risky","safe","2930","6","bandit-task","3","49615","0.0-3.0-0.0","65","high"
"2","safe","50","blue-219","red-156","risky","safe","2726","6","bandit-task","4","55402","0.0-3.0-0.1","65","high"
"3","safe","49","blue-198","red-4","risky","safe","3518","6","bandit-task","5","61898","0.0-3.0-0.2","65","high"
"4","safe","50","blue-165","red-100","risky","safe","2622","6","bandit-task","6","67449","0.0-3.0-0.3","65","high"
"5","safe","51","blue-214","red-3","risky","safe","2015","6","bandit-task","7","72481","0.0-3.0-0.4","65","high"
"6","risky","52","blue-74","red-173","risky","safe","4230","6","bandit-task","8","79657","0.0-3.0-0.5","65","high"
"7","safe","48","blue-148","red-69","risky","safe","1887","6","bandit-task","9","84209","0.0-3.0-0.6","65","high"
"8","safe","50","blue-159","red-170","risky","safe","2422","6","bandit-task","10","89720","0.0-3.0-0.7","65","high"
"9","safe","51","blue-38","red-29","risky","safe","1494","6","bandit-task","11","94256","0.0-3.0-0.8","65","high"
"10","risky","67","blue-200","red-120","risky","safe","1982","6","bandit-task","12","99240","0.0-3.0-0.9","65","high"
"11","risky","87","blue-179","red-106","risky","safe","3423","6","bandit-task","13","105655","0.0-3.0-0.10","65","high"
"12","risky","58","blue-78","red-92","risky","safe","1935","6","bandit-task","14","110263","0.0-3.0-0.11","65","high"
"13","risky","66","blue-181","red-152","risky","safe","2087","6","bandit-task","15","115143","0.0-3.0-0.12","65","high"
"14","safe","49","blue-16","red-97","risky","safe","1289","6","bandit-task","16","119234","0.0-3.0-0.13","65","high"
"15","risky","51","blue-58","red-51","risky","safe","1358","6","bandit-task","17","123674","0.0-3.0-0.14","65","high"
"16","risky","42","blue-157","red-109","risky","safe","1679","6","bandit-task","18","127913","0.0-3.0-0.15","65","high"
"17","safe","51","blue-50","red-180","risky","safe","1271","6","bandit-task","19","132297","0.0-3.0-0.16","65","high"
"18","risky","78","blue-190","red-42","risky","safe","1918","6","bandit-task","20","136777","0.0-3.0-0.17","65","high"
"19","risky","58","blue-13","red-167","risky","safe","2086","6","bandit-task","21","141497","0.0-3.0-0.18","65","high"
"20","risky","21","blue-24","red-26","risky","safe","2287","6","bandit-task","22","146817","0.0-3.0-0.19","65","high"
"21","risky","14","blue-85","red-34","risky","safe","2022","6","bandit-task","23","151480","0.0-3.0-0.20","65","high"
"22","safe","52","blue-72","red-94","risky","safe","1510","6","bandit-task","24","156272","0.0-3.0-0.21","65","high"
"23","risky","44","blue-5","red-216","risky","safe","3638","6","bandit-task","25","162392","0.0-3.0-0.22","65","high"
"24","safe","51","blue-18","red-87","risky","safe","3190","6","bandit-task","26","168096","0.0-3.0-0.23","65","high"
"25","risky","27","blue-67","red-168","risky","safe","2431","6","bandit-task","27","173031","0.0-3.0-0.24","65","high"
"26","risky","70","blue-144","red-131","risky","safe","1614","6","bandit-task","28","177138","0.0-3.0-0.25","65","high"
"27","safe","51","blue-126","red-80","risky","safe","1502","6","bandit-task","29","181457","0.0-3.0-0.26","65","high"
"28","safe","49","blue-135","red-209","risky","safe","2614","6","bandit-task","30","186769","0.0-3.0-0.27","65","high"
"29","risky","20","blue-174","red-71","risky","safe","2974","6","bandit-task","31","192361","0.0-3.0-0.28","65","high"
"30","risky","56","blue-11","red-192","risky","safe","1726","6","bandit-task","32","196673","0.0-3.0-0.29","65","high"
"31","risky","16","blue-62","red-137","risky","safe","1350","6","bandit-task","33","200576","0.0-3.0-0.30","65","high"
"32","safe","50","blue-133","red-101","risky","safe","2903","6","bandit-task","34","206584","0.0-3.0-0.31","65","high"
"33","risky","55","blue-75","red-183","risky","safe","2581","6","bandit-task","35","211904","0.0-3.0-0.32","65","high"
"34","risky","38","blue-185","red-30","risky","safe","3295","6","bandit-task","36","217792","0.0-3.0-0.33","65","high"
"35","safe","51","blue-213","red-162","risky","safe","1535","6","bandit-task","37","222256","0.0-3.0-0.34","65","high"
"36","safe","49","blue-186","red-194","risky","safe","3093","6","bandit-task","38","227951","0.0-3.0-0.35","65","high"
"37","safe","51","blue-143","red-107","risky","safe","2990","6","bandit-task","39","233575","0.0-3.0-0.36","65","high"
"38","safe","49","blue-141","red-102","risky","safe","1918","6","bandit-task","40","237961","0.0-3.0-0.37","65","high"
"39","risky","37","blue-96","red-207","risky","safe","1222","6","bandit-task","41","241585","0.0-3.0-0.38","65","high"
"40","risky","28","blue-124","red-164","risky","safe","1742","6","bandit-task","42","245904","0.0-3.0-0.39","65","high"
"41","safe","50","blue-204","red-114","risky","safe","1559","6","bandit-task","43","250000","0.0-3.0-0.40","65","high"
"42","safe","50","blue-127","red-19","risky","safe","1935","6","bandit-task","44","254520","0.0-3.0-0.41","65","high"
"43","safe","49","blue-31","red-123","risky","safe","2478","6","bandit-task","45","260080","0.0-3.0-0.42","65","high"
"44","risky","64","blue-41","red-105","risky","safe","3862","6","bandit-task","46","267032","0.0-3.0-0.43","65","high"
"45","risky","27","blue-189","red-142","risky","safe","2302","6","bandit-task","47","272103","0.0-3.0-0.44","65","high"
"46","safe","52","blue-169","red-140","risky","safe","2742","6","bandit-task","48","277831","0.0-3.0-0.45","65","high"
"47","safe","51","blue-23","red-195","risky","safe","2046","6","bandit-task","49","282487","0.0-3.0-0.46","65","high"
"48","safe","49","blue-22","red-32","risky","safe","1566","6","bandit-task","50","286854","0.0-3.0-0.47","65","high"
"49","safe","48","blue-160","red-128","risky","safe","2551","6","bandit-task","51","291919","0.0-3.0-0.48","65","high"
"50","safe","52","blue-76","red-33","risky","safe","2453","6","bandit-task","52","296862","0.0-3.0-0.49","65","high"
"51","safe","53","blue-68","red-151","risky","safe","3101","6","bandit-task","53","302404","0.0-3.0-0.50","65","high"
"52","risky","85","blue-39","red-57","risky","safe","1598","6","bandit-task","54","306436","0.0-3.0-0.51","65","high"
"53","risky","70","blue-177","red-146","risky","safe","2734","6","bandit-task","55","311644","0.0-3.0-0.52","65","high"
"54","risky","55","blue-52","red-202","risky","safe","1542","6","bandit-task","56","315660","0.0-3.0-0.53","65","high"
"55","safe","49","blue-91","red-218","risky","safe","1510","6","bandit-task","57","319667","0.0-3.0-0.54","65","high"
"56","risky","17","blue-83","red-111","risky","safe","1887","6","bandit-task","58","324051","0.0-3.0-0.55","65","high"
"57","safe","51","blue-49","red-149","risky","safe","2134","6","bandit-task","59","329059","0.0-3.0-0.56","65","high"
"58","risky","33","blue-196","red-212","risky","safe","2542","6","bandit-task","60","334115","0.0-3.0-0.57","65","high"
"59","safe","50","blue-188","red-36","risky","safe","1558","6","bandit-task","61","338170","0.0-3.0-0.58","65","high"
"60","safe","50","blue-86","red-172","risky","safe","2423","6","bandit-task","62","343282","0.0-3.0-0.59","65","high"
"61","safe","49","blue-63","red-201","risky","safe","3382","6","bandit-task","63","349458","0.0-3.0-0.60","65","high"
"62","safe","49","blue-37","red-193","risky","safe","2462","6","bandit-task","64","354673","0.0-3.0-0.61","65","high"
"63","risky","56","blue-61","red-66","risky","safe","1791","6","bandit-task","65","359018","0.0-3.0-0.62","65","high"
"64","risky","79","blue-117","red-191","risky","safe","2571","6","bandit-task","66","364101","0.0-3.0-0.63","65","high"
"65","safe","50","blue-53","red-163","risky","safe","1951","6","bandit-task","67","368525","0.0-3.0-0.64","65","high"
"66","risky","42","blue-176","red-161","risky","safe","1766","6","bandit-task","68","372693","0.0-3.0-0.65","65","high"
"67","safe","51","blue-153","red-139","risky","safe","1502","6","bandit-task","69","376709","0.0-3.0-0.66","65","high"
"68","safe","49","blue-182","red-81","risky","safe","1870","6","bandit-task","70","381109","0.0-3.0-0.67","65","high"
"69","risky","37","blue-178","red-125","risky","safe","2078","6","bandit-task","71","386124","0.0-3.0-0.68","65","high"
"70","safe","50","blue-65","red-147","risky","safe","3070","6","bandit-task","72","392212","0.0-3.0-0.69","65","high"
"71","risky","27","blue-205","red-59","risky","safe","2334","6","bandit-task","73","397148","0.0-3.0-0.70","65","high"
"72","safe","49","blue-122","red-6","risky","safe","1766","6","bandit-task","74","401348","0.0-3.0-0.71","65","high"
"73","risky","64","blue-98","red-47","risky","safe","3742","6","bandit-task","75","407771","0.0-3.0-0.72","65","high"
"74","safe","49","blue-199","red-20","risky","safe","1807","6","bandit-task","76","412363","0.0-3.0-0.73","65","high"
"75","risky","60","blue-113","red-79","risky","safe","1853","6","bandit-task","77","417027","0.0-3.0-0.74","65","high"
"76","risky","56","blue-95","red-110","risky","safe","2062","6","bandit-task","78","421553","0.0-3.0-0.75","65","high"
"77","risky","38","blue-40","red-217","risky","safe","2846","6","bandit-task","79","426904","0.0-3.0-0.76","65","high"
"78","safe","51","blue-10","red-9","risky","safe","1287","6","bandit-task","80","430856","0.0-3.0-0.77","65","high"
"79","safe","50","blue-155","red-1","risky","safe","1981","6","bandit-task","81","435752","0.0-3.0-0.78","65","high"
"80","safe","51","blue-88","red-203","risky","safe","2038","6","bandit-task","82","440632","0.0-3.0-0.79","65","high"
"81","safe","50","blue-132","red-60","risky","safe","1702","6","bandit-task","83","444887","0.0-3.0-0.80","65","high"
"82","risky","32","blue-48","red-46","risky","safe","1406","6","bandit-task","84","449311","0.0-3.0-0.81","65","high"
"83","safe","51","blue-2","red-166","risky","safe","3086","6","bandit-task","85","455231","0.0-3.0-0.82","65","high"
"84","safe","49","blue-27","red-7","risky","safe","1902","6","bandit-task","86","459783","0.0-3.0-0.83","65","high"
"85","risky","58","blue-28","red-43","risky","safe","3950","6","bandit-task","87","466223","0.0-3.0-0.84","65","high"
"86","risky","45","blue-138","red-77","risky","safe","1926","6","bandit-task","88","470638","0.0-3.0-0.85","65","high"
"87","safe","50","blue-150","red-121","risky","safe","1334","6","bandit-task","89","474526","0.0-3.0-0.86","65","high"
"88","safe","51","blue-175","red-15","risky","safe","2238","6","bandit-task","90","479702","0.0-3.0-0.87","65","high"
"89","safe","50","blue-73","red-99","risky","safe","1246","6","bandit-task","91","483578","0.0-3.0-0.88","65","high"
"90","safe","50","blue-187","red-158","risky","safe","3382","6","bandit-task","92","489594","0.0-3.0-0.89","65","high"
"91","safe","48","blue-82","red-215","risky","safe","1726","6","bandit-task","93","494210","0.0-3.0-0.90","65","high"
"92","safe","50","blue-44","red-112","risky","safe","1542","6","bandit-task","94","498474","0.0-3.0-0.91","65","high"
"93","risky","24","blue-93","red-145","risky","safe","1302","6","bandit-task","95","502850","0.0-3.0-0.92","65","high"
"94","safe","51","blue-197","red-134","risky","safe","1446","6","bandit-task","96","507041","0.0-3.0-0.93","65","high"
"95","safe","51","blue-64","red-115","risky","safe","1575","6","bandit-task","97","511545","0.0-3.0-0.94","65","high"
"96","safe","51","blue-70","red-17","risky","safe","1494","6","bandit-task","98","515905","0.0-3.0-0.95","65","high"
"97","safe","49","blue-206","red-104","risky","safe","1238","6","bandit-task","99","520001","0.0-3.0-0.96","65","high"
"98","safe","51","blue-103","red-14","risky","safe","1022","6","bandit-task","100","523696","0.0-3.0-0.97","65","high"
"99","safe","49","blue-84","red-89","risky","safe","2638","6","bandit-task","101","529768","0.0-3.0-0.98","65","high"
"100","safe","51","blue-116","red-118","risky","safe","1013","6","bandit-task","102","533528","0.0-3.0-0.99","65","high"
"101","safe","49","blue-108","red-130","risky","safe","1278","6","bandit-task","103","537408","0.0-3.0-0.100","65","high"
"102","safe","50","blue-90","red-171","risky","safe","1469","6","bandit-task","104","541832","0.0-3.0-0.101","65","high"
"103","safe","48","blue-220","red-211","risky","safe","1030","6","bandit-task","105","545233","0.0-3.0-0.102","65","high"
"104","safe","50","blue-208","red-184","risky","safe","1094","6","bandit-task","106","548722","0.0-3.0-0.103","65","high"
"105","safe","49","blue-54","red-136","risky","safe","1438","6","bandit-task","107","552545","0.0-3.0-0.104","65","high"
"106","risky","51","blue-129","red-35","risky","safe","1950","6","bandit-task","108","557089","0.0-3.0-0.105","65","high"
"107","safe","51","blue-154","red-56","risky","safe","981","6","bandit-task","109","560889","0.0-3.0-0.106","65","high"
"108","safe","52","blue-55","red-21","risky","safe","2334","6","bandit-task","110","565920","0.0-3.0-0.107","65","high"
"109","risky","50","blue-119","red-8","risky","safe","3454","6","bandit-task","111","571984","0.0-3.0-0.108","65","high"
"110","safe","51","blue-45","red-25","risky","safe","1663","6","bandit-task","112","576449","0.0-3.0-0.109","65","high"
