"trial","choice","feedback","left_stimulus","right_stimulus","left_option","right_option","rt","distribution","trial_type","trial_index","time_elapsed","internal_node_id","participant","condition"
"1","risky","79","red-16","blue-9","safe","risky","1791","8","bandit-task","3","31990","0.0-3.0-0.0","99","low"
"2","risky","46","red-16","blue-9","safe","risky","5725","8","bandit-task","4","40605","0.0-3.0-0.1","99","low"
"3","safe","51","red-16","blue-9","safe","risky","614","8","bandit-task","5","43797","0.0-3.0-0.2","99","low"
"4","risky","44","red-16","blue-9","safe","risky","646","8","bandit-task","6","47061","0.0-3.0-0.3","99","low"
"5","safe","50","red-16","blue-9","safe","risky","2303","8","bandit-task","7","51796","0.0-3.0-0.4","99","low"
"6","safe","51","red-16","blue-9","safe","risky","1487","8","bandit-task","8","55836","0.0-3.0-0.5","99","low"
"7","safe","49","red-16","blue-9","safe","risky","855","8","bandit-task","9","59092","0.0-3.0-0.6","99","low"
"8","risky","67","red-16","blue-9","safe","risky","686","8","bandit-task","10","62524","0.0-3.0-0.7","99","low"
"9","risky","14","red-16","blue-9","safe","risky","575","8","bandit-task","11","65588","0.0-3.0-0.8","99","low"
"10","risky","50","red-16","blue-9","safe","risky","495","8","bandit-task","12","68684","0.0-3.0-0.9","99","low"
"11","risky","45","red-16","blue-9","safe","risky","599","8","bandit-task","13","71700","0.0-3.0-0.10","99","low"
"12","safe","49","red-16","blue-9","safe","risky","1327","8","bandit-task","14","75571","0.0-3.0-0.11","99","low"
"13","safe","49","red-16","blue-9","safe","risky","1334","8","bandit-task","15","79363","0.0-3.0-0.12","99","low"
"14","safe","48","red-16","blue-9","safe","risky","814","8","bandit-task","16","83259","0.0-3.0-0.13","99","low"
"15","risky","37","red-16","blue-9","safe","risky","678","8","bandit-task","17","86595","0.0-3.0-0.14","99","low"
"16","safe","50","red-16","blue-9","safe","risky","670","8","bandit-task","18","89771","0.0-3.0-0.15","99","low"
"17","safe","49","red-16","blue-9","safe","risky","606","8","bandit-task","19","92885","0.0-3.0-0.16","99","low"
"18","safe","51","red-16","blue-9","safe","risky","846","8","bandit-task","20","96125","0.0-3.0-0.17","99","low"
"19","risky","40","red-16","blue-9","safe","risky","822","8","bandit-task","21","99373","0.0-3.0-0.18","99","low"
"20","safe","51","red-16","blue-9","safe","risky","774","8","bandit-task","22","102661","0.0-3.0-0.19","99","low"
"21","safe","51","red-16","blue-9","safe","risky","671","8","bandit-task","23","105908","0.0-3.0-0.20","99","low"
"22","safe","53","red-16","blue-9","safe","risky","487","8","bandit-task","24","108796","0.0-3.0-0.21","99","low"
"23","risky","37","red-16","blue-9","safe","risky","502","8","bandit-task","25","111709","0.0-3.0-0.22","99","low"
"24","safe","50","red-16","blue-9","safe","risky","390","8","bandit-task","26","114533","0.0-3.0-0.23","99","low"
"25","safe","52","red-16","blue-9","safe","risky","462","8","bandit-task","27","117956","0.0-3.0-0.24","99","low"
"26","safe","50","red-16","blue-9","safe","risky","566","8","bandit-task","28","120996","0.0-3.0-0.25","99","low"
"27","risky","48","red-16","blue-9","safe","risky","542","8","bandit-task","29","123908","0.0-3.0-0.26","99","low"
"28","risky","66","red-16","blue-9","safe","risky","1215","8","bandit-task","30","127651","0.0-3.0-0.27","99","low"
"29","risky","28","red-16","blue-9","safe","risky","591","8","bandit-task","31","130627","0.0-3.0-0.28","99","low"
"30","risky","85","red-16","blue-9","safe","risky","438","8","bandit-task","32","133435","0.0-3.0-0.29","99","low"
"31","safe","51","red-16","blue-9","safe","risky","502","8","bandit-task","33","136651","0.0-3.0-0.30","99","low"
"32","risky","69","red-16","blue-9","safe","risky","406","8","bandit-task","34","139515","0.0-3.0-0.31","99","low"
"33","safe","49","red-16","blue-9","safe","risky","446","8","bandit-task","35","142595","0.0-3.0-0.32","99","low"
"34","risky","32","red-16","blue-9","safe","risky","518","8","bandit-task","36","145587","0.0-3.0-0.33","99","low"
"35","risky","38","red-16","blue-9","safe","risky","382","8","bandit-task","37","148642","0.0-3.0-0.34","99","low"
"36","risky","74","red-16","blue-9","safe","risky","359","8","bandit-task","38","151394","0.0-3.0-0.35","99","low"
"37","risky","53","red-16","blue-9","safe","risky","351","8","bandit-task","39","154102","0.0-3.0-0.36","99","low"
"38","risky","50","red-16","blue-9","safe","risky","463","8","bandit-task","40","157174","0.0-3.0-0.37","99","low"
"39","safe","48","red-16","blue-9","safe","risky","358","8","bandit-task","41","160301","0.0-3.0-0.38","99","low"
"40","safe","50","red-16","blue-9","safe","risky","415","8","bandit-task","42","163325","0.0-3.0-0.39","99","low"
"41","safe","49","red-16","blue-9","safe","risky","287","8","bandit-task","43","166069","0.0-3.0-0.40","99","low"
"42","safe","48","red-16","blue-9","safe","risky","446","8","bandit-task","44","168861","0.0-3.0-0.41","99","low"
"43","safe","47","red-16","blue-9","safe","risky","382","8","bandit-task","45","171597","0.0-3.0-0.42","99","low"
"44","risky","82","red-16","blue-9","safe","risky","445","8","bandit-task","46","174637","0.0-3.0-0.43","99","low"
"45","risky","55","red-16","blue-9","safe","risky","318","8","bandit-task","47","177445","0.0-3.0-0.44","99","low"
"46","risky","48","red-16","blue-9","safe","risky","566","8","bandit-task","48","180413","0.0-3.0-0.45","99","low"
"47","risky","46","red-16","blue-9","safe","risky","334","8","bandit-task","49","183084","0.0-3.0-0.46","99","low"
"48","risky","28","red-16","blue-9","safe","risky","335","8","bandit-task","50","185813","0.0-3.0-0.47","99","low"
"49","risky","67","red-16","blue-9","safe","risky","326","8","bandit-task","51","188468","0.0-3.0-0.48","99","low"
"50","risky","31","red-16","blue-9","safe","risky","279","8","bandit-task","52","191092","0.0-3.0-0.49","99","low"
"51","safe","51","red-16","blue-9","safe","risky","302","8","bandit-task","53","193756","0.0-3.0-0.50","99","low"
"52","safe","49","red-16","blue-9","safe","risky","270","8","bandit-task","54","196372","0.0-3.0-0.51","99","low"
"53","risky","85","red-16","blue-9","safe","risky","326","8","bandit-task","55","199035","0.0-3.0-0.52","99","low"
"54","safe","50","red-16","blue-9","safe","risky","303","8","bandit-task","56","201723","0.0-3.0-0.53","99","low"
"55","risky","39","red-16","blue-9","safe","risky","263","8","bandit-task","57","204435","0.0-3.0-0.54","99","low"
"56","safe","51","red-16","blue-9","safe","risky","503","8","bandit-task","58","207283","0.0-3.0-0.55","99","low"
"57","safe","51","red-16","blue-9","safe","risky","366","8","bandit-task","59","210019","0.0-3.0-0.56","99","low"
"58","safe","51","red-16","blue-9","safe","risky","350","8","bandit-task","60","214117","0.0-3.0-0.57","99","low"
"59","safe","49","red-16","blue-9","safe","risky","309","8","bandit-task","61","216789","0.0-3.0-0.58","99","low"
"60","safe","50","red-16","blue-9","safe","risky","359","8","bandit-task","62","219477","0.0-3.0-0.59","99","low"
"61","risky","60","red-16","blue-9","safe","risky","407","8","bandit-task","63","222284","0.0-3.0-0.60","99","low"
"62","risky","26","red-16","blue-9","safe","risky","454","8","bandit-task","64","225100","0.0-3.0-0.61","99","low"
"63","risky","35","red-16","blue-9","safe","risky","319","8","bandit-task","65","227757","0.0-3.0-0.62","99","low"
"64","risky","59","red-16","blue-9","safe","risky","350","8","bandit-task","66","230412","0.0-3.0-0.63","99","low"
"65","risky","18","red-16","blue-9","safe","risky","334","8","bandit-task","67","233092","0.0-3.0-0.64","99","low"
"66","risky","71","red-16","blue-9","safe","risky","294","8","bandit-task","68","235748","0.0-3.0-0.65","99","low"
"67","risky","42","red-16","blue-9","safe","risky","302","8","bandit-task","69","238379","0.0-3.0-0.66","99","low"
"68","risky","66","red-16","blue-9","safe","risky","407","8","bandit-task","70","241116","0.0-3.0-0.67","99","low"
"69","safe","50","red-16","blue-9","safe","risky","351","8","bandit-task","71","243819","0.0-3.0-0.68","99","low"
"70","safe","51","red-16","blue-9","safe","risky","311","8","bandit-task","72","246491","0.0-3.0-0.69","99","low"
"71","safe","51","red-16","blue-9","safe","risky","311","8","bandit-task","73","249491","0.0-3.0-0.70","99","low"
"72","safe","51","red-16","blue-9","safe","risky","382","8","bandit-task","74","252307","0.0-3.0-0.71","99","low"
"73","safe","49","red-16","blue-9","safe","risky","350","8","bandit-task","75","255051","0.0-3.0-0.72","99","low"
"74","safe","49","red-16","blue-9","safe","risky","310","8","bandit-task","76","257811","0.0-3.0-0.73","99","low"
"75","safe","50","red-16","blue-9","safe","risky","334","8","bandit-task","77","260498","0.0-3.0-0.74","99","low"
"76","risky","60","red-16","blue-9","safe","risky","327","8","bandit-task","78","263187","0.0-3.0-0.75","99","low"
"77","risky","44","red-16","blue-9","safe","risky","286","8","bandit-task","79","265834","0.0-3.0-0.76","99","low"
"78","safe","50","red-16","blue-9","safe","risky","311","8","bandit-task","80","268546","0.0-3.0-0.77","99","low"
"79","safe","51","red-16","blue-9","safe","risky","542","8","bandit-task","81","272002","0.0-3.0-0.78","99","low"
"80","risky","42","red-16","blue-9","safe","risky","494","8","bandit-task","82","275205","0.0-3.0-0.79","99","low"
"81","safe","49","red-16","blue-9","safe","risky","510","8","bandit-task","83","278677","0.0-3.0-0.80","99","low"
"82","safe","48","red-16","blue-9","safe","risky","462","8","bandit-task","84","281533","0.0-3.0-0.81","99","low"
"83","safe","49","red-16","blue-9","safe","risky","510","8","bandit-task","85","284693","0.0-3.0-0.82","99","low"
"84","safe","49","red-16","blue-9","safe","risky","390","8","bandit-task","86","287692","0.0-3.0-0.83","99","low"
"85","risky","53","red-16","blue-9","safe","risky","351","8","bandit-task","87","290404","0.0-3.0-0.84","99","low"
"86","safe","50","red-16","blue-9","safe","risky","455","8","bandit-task","88","293325","0.0-3.0-0.85","99","low"
"87","safe","49","red-16","blue-9","safe","risky","358","8","bandit-task","89","296468","0.0-3.0-0.86","99","low"
"88","safe","49","red-16","blue-9","safe","risky","278","8","bandit-task","90","299100","0.0-3.0-0.87","99","low"
"89","safe","52","red-16","blue-9","safe","risky","334","8","bandit-task","91","302116","0.0-3.0-0.88","99","low"
"90","risky","53","red-16","blue-9","safe","risky","342","8","bandit-task","92","305036","0.0-3.0-0.89","99","low"
"91","risky","58","red-16","blue-9","safe","risky","318","8","bandit-task","93","307955","0.0-3.0-0.90","99","low"
"92","risky","42","red-16","blue-9","safe","risky","382","8","bandit-task","94","311515","0.0-3.0-0.91","99","low"
"93","safe","50","red-16","blue-9","safe","risky","815","8","bandit-task","95","314899","0.0-3.0-0.92","99","low"
"94","safe","49","red-16","blue-9","safe","risky","606","8","bandit-task","96","317947","0.0-3.0-0.93","99","low"
"95","safe","51","red-16","blue-9","safe","risky","542","8","bandit-task","97","321163","0.0-3.0-0.94","99","low"
"96","safe","51","red-16","blue-9","safe","risky","374","8","bandit-task","98","325514","0.0-3.0-0.95","99","low"
"97","risky","35","red-16","blue-9","safe","risky","422","8","bandit-task","99","330314","0.0-3.0-0.96","99","low"
"98","safe","51","red-16","blue-9","safe","risky","351","8","bandit-task","100","333218","0.0-3.0-0.97","99","low"
"99","safe","50","red-16","blue-9","safe","risky","303","8","bandit-task","101","335869","0.0-3.0-0.98","99","low"
"100","safe","49","red-16","blue-9","safe","risky","342","8","bandit-task","102","338709","0.0-3.0-0.99","99","low"
"101","safe","50","red-16","blue-9","safe","risky","374","8","bandit-task","103","341493","0.0-3.0-0.100","99","low"
"102","safe","50","red-16","blue-9","safe","risky","398","8","bandit-task","104","344421","0.0-3.0-0.101","99","low"
"103","risky","89","red-16","blue-9","safe","risky","318","8","bandit-task","105","347221","0.0-3.0-0.102","99","low"
"104","risky","82","red-16","blue-9","safe","risky","1310","8","bandit-task","106","351052","0.0-3.0-0.103","99","low"
"105","risky","49","red-16","blue-9","safe","risky","327","8","bandit-task","107","353892","0.0-3.0-0.104","99","low"
"106","safe","51","red-16","blue-9","safe","risky","319","8","bandit-task","108","356636","0.0-3.0-0.105","99","low"
"107","safe","48","red-16","blue-9","safe","risky","310","8","bandit-task","109","359348","0.0-3.0-0.106","99","low"
"108","safe","50","red-16","blue-9","safe","risky","278","8","bandit-task","110","362108","0.0-3.0-0.107","99","low"
"109","safe","50","red-16","blue-9","safe","risky","286","8","bandit-task","111","364956","0.0-3.0-0.108","99","low"
"110","safe","51","red-16","blue-9","safe","risky","286","8","bandit-task","112","367676","0.0-3.0-0.109","99","low"
