"trial","choice","feedback","left_stimulus","right_stimulus","left_option","right_option","rt","distribution","trial_type","trial_index","time_elapsed","internal_node_id","participant","condition"
"1","risky","79","blue-218","red-105","risky","safe","4385","8","bandit-task","3","45556","0.0-3.0-0.0","44","low"
"2","safe","51","blue-218","red-105","risky","safe","5062","8","bandit-task","4","53515","0.0-3.0-0.1","44","low"
"3","risky","46","blue-218","red-105","risky","safe","3765","8","bandit-task","5","60729","0.0-3.0-0.2","44","low"
"4","risky","44","blue-218","red-105","risky","safe","959","8","bandit-task","6","64345","0.0-3.0-0.3","44","low"
"5","safe","50","blue-218","red-105","risky","safe","870","8","bandit-task","7","68113","0.0-3.0-0.4","44","low"
"6","safe","51","blue-218","red-105","risky","safe","2318","8","bandit-task","8","73225","0.0-3.0-0.5","44","low"
"7","risky","67","blue-218","red-105","risky","safe","694","8","bandit-task","9","77112","0.0-3.0-0.6","44","low"
"8","risky","14","blue-218","red-105","risky","safe","943","8","bandit-task","10","80816","0.0-3.0-0.7","44","low"
"9","safe","49","blue-218","red-105","risky","safe","727","8","bandit-task","11","84208","0.0-3.0-0.8","44","low"
"10","risky","50","blue-218","red-105","risky","safe","1614","8","bandit-task","12","88648","0.0-3.0-0.9","44","low"
"11","risky","45","blue-218","red-105","risky","safe","629","8","bandit-task","13","91760","0.0-3.0-0.10","44","low"
"12","safe","49","blue-218","red-105","risky","safe","710","8","bandit-task","14","95008","0.0-3.0-0.11","44","low"
"13","safe","49","blue-218","red-105","risky","safe","1447","8","bandit-task","15","99287","0.0-3.0-0.12","44","low"
"14","risky","37","blue-218","red-105","risky","safe","807","8","bandit-task","16","102567","0.0-3.0-0.13","44","low"
"15","safe","48","blue-218","red-105","risky","safe","639","8","bandit-task","17","106207","0.0-3.0-0.14","44","low"
"16","risky","40","blue-218","red-105","risky","safe","1198","8","bandit-task","18","110287","0.0-3.0-0.15","44","low"
"17","risky","37","blue-218","red-105","risky","safe","846","8","bandit-task","19","113671","0.0-3.0-0.16","44","low"
"18","safe","50","blue-218","red-105","risky","safe","638","8","bandit-task","20","116999","0.0-3.0-0.17","44","low"
"19","safe","49","blue-218","red-105","risky","safe","1042","8","bandit-task","21","120738","0.0-3.0-0.18","44","low"
"20","safe","51","blue-218","red-105","risky","safe","895","8","bandit-task","22","124267","0.0-3.0-0.19","44","low"
"21","risky","48","blue-218","red-105","risky","safe","1110","8","bandit-task","23","127850","0.0-3.0-0.20","44","low"
"22","safe","51","blue-218","red-105","risky","safe","926","8","bandit-task","24","131458","0.0-3.0-0.21","44","low"
"23","safe","51","blue-218","red-105","risky","safe","750","8","bandit-task","25","134858","0.0-3.0-0.22","44","low"
"24","risky","66","blue-218","red-105","risky","safe","758","8","bandit-task","26","138098","0.0-3.0-0.23","44","low"
"25","safe","53","blue-218","red-105","risky","safe","598","8","bandit-task","27","141233","0.0-3.0-0.24","44","low"
"26","risky","28","blue-218","red-105","risky","safe","487","8","bandit-task","28","144257","0.0-3.0-0.25","44","low"
"27","safe","50","blue-218","red-105","risky","safe","615","8","bandit-task","29","148049","0.0-3.0-0.26","44","low"
"28","safe","52","blue-218","red-105","risky","safe","1358","8","bandit-task","30","152073","0.0-3.0-0.27","44","low"
"29","safe","50","blue-218","red-105","risky","safe","798","8","bandit-task","31","155497","0.0-3.0-0.28","44","low"
"30","risky","85","blue-218","red-105","risky","safe","534","8","bandit-task","32","158481","0.0-3.0-0.29","44","low"
"31","risky","69","blue-218","red-105","risky","safe","846","8","bandit-task","33","162144","0.0-3.0-0.30","44","low"
"32","risky","32","blue-218","red-105","risky","safe","623","8","bandit-task","34","165256","0.0-3.0-0.31","44","low"
"33","safe","51","blue-218","red-105","risky","safe","558","8","bandit-task","35","169056","0.0-3.0-0.32","44","low"
"34","risky","38","blue-218","red-105","risky","safe","1286","8","bandit-task","36","172848","0.0-3.0-0.33","44","low"
"35","safe","49","blue-218","red-105","risky","safe","982","8","bandit-task","37","176648","0.0-3.0-0.34","44","low"
"36","safe","48","blue-218","red-105","risky","safe","615","8","bandit-task","38","179728","0.0-3.0-0.35","44","low"
"37","risky","74","blue-218","red-105","risky","safe","743","8","bandit-task","39","183080","0.0-3.0-0.36","44","low"
"38","risky","53","blue-218","red-105","risky","safe","782","8","bandit-task","40","187952","0.0-3.0-0.37","44","low"
"39","safe","50","blue-218","red-105","risky","safe","678","8","bandit-task","41","191439","0.0-3.0-0.38","44","low"
"40","safe","49","blue-218","red-105","risky","safe","711","8","bandit-task","42","195263","0.0-3.0-0.39","44","low"
"41","risky","50","blue-218","red-105","risky","safe","734","8","bandit-task","43","198591","0.0-3.0-0.40","44","low"
"42","risky","82","blue-218","red-105","risky","safe","614","8","bandit-task","44","202223","0.0-3.0-0.41","44","low"
"43","safe","48","blue-218","red-105","risky","safe","734","8","bandit-task","45","206215","0.0-3.0-0.42","44","low"
"44","risky","55","blue-218","red-105","risky","safe","526","8","bandit-task","46","209495","0.0-3.0-0.43","44","low"
"45","risky","48","blue-218","red-105","risky","safe","838","8","bandit-task","47","213006","0.0-3.0-0.44","44","low"
"46","safe","47","blue-218","red-105","risky","safe","637","8","bandit-task","48","216558","0.0-3.0-0.45","44","low"
"47","safe","51","blue-218","red-105","risky","safe","565","8","bandit-task","49","220054","0.0-3.0-0.46","44","low"
"48","safe","49","blue-218","red-105","risky","safe","631","8","bandit-task","50","223270","0.0-3.0-0.47","44","low"
"49","risky","46","blue-218","red-105","risky","safe","574","8","bandit-task","51","226566","0.0-3.0-0.48","44","low"
"50","risky","28","blue-218","red-105","risky","safe","534","8","bandit-task","52","229550","0.0-3.0-0.49","44","low"
"51","safe","50","blue-218","red-105","risky","safe","526","8","bandit-task","53","232950","0.0-3.0-0.50","44","low"
"52","safe","51","blue-218","red-105","risky","safe","486","8","bandit-task","54","236118","0.0-3.0-0.51","44","low"
"53","safe","51","blue-218","red-105","risky","safe","847","8","bandit-task","55","239680","0.0-3.0-0.52","44","low"
"54","safe","51","blue-218","red-105","risky","safe","743","8","bandit-task","56","243024","0.0-3.0-0.53","44","low"
"55","risky","67","blue-218","red-105","risky","safe","1311","8","bandit-task","57","247712","0.0-3.0-0.54","44","low"
"56","risky","31","blue-218","red-105","risky","safe","711","8","bandit-task","58","251272","0.0-3.0-0.55","44","low"
"57","safe","49","blue-218","red-105","risky","safe","470","8","bandit-task","59","254344","0.0-3.0-0.56","44","low"
"58","safe","50","blue-218","red-105","risky","safe","662","8","bandit-task","60","257696","0.0-3.0-0.57","44","low"
"59","safe","50","blue-218","red-105","risky","safe","646","8","bandit-task","61","261152","0.0-3.0-0.58","44","low"
"60","safe","51","blue-218","red-105","risky","safe","686","8","bandit-task","62","264496","0.0-3.0-0.59","44","low"
"61","safe","51","blue-218","red-105","risky","safe","687","8","bandit-task","63","267720","0.0-3.0-0.60","44","low"
"62","safe","51","blue-218","red-105","risky","safe","639","8","bandit-task","64","270895","0.0-3.0-0.61","44","low"
"63","safe","49","blue-218","red-105","risky","safe","630","8","bandit-task","65","274431","0.0-3.0-0.62","44","low"
"64","risky","85","blue-218","red-105","risky","safe","662","8","bandit-task","66","277639","0.0-3.0-0.63","44","low"
"65","risky","39","blue-218","red-105","risky","safe","1134","8","bandit-task","67","281543","0.0-3.0-0.64","44","low"
"66","safe","49","blue-218","red-105","risky","safe","622","8","bandit-task","68","284911","0.0-3.0-0.65","44","low"
"67","safe","50","blue-218","red-105","risky","safe","614","8","bandit-task","69","288046","0.0-3.0-0.66","44","low"
"68","safe","50","blue-218","red-105","risky","safe","567","8","bandit-task","70","291070","0.0-3.0-0.67","44","low"
"69","risky","60","blue-218","red-105","risky","safe","566","8","bandit-task","71","294358","0.0-3.0-0.68","44","low"
"70","safe","51","blue-218","red-105","risky","safe","694","8","bandit-task","72","297558","0.0-3.0-0.69","44","low"
"71","risky","26","blue-218","red-105","risky","safe","630","8","bandit-task","73","301288","0.0-3.0-0.70","44","low"
"72","safe","49","blue-218","red-105","risky","safe","494","8","bandit-task","74","304336","0.0-3.0-0.71","44","low"
"73","safe","48","blue-218","red-105","risky","safe","542","8","bandit-task","75","307632","0.0-3.0-0.72","44","low"
"74","risky","35","blue-218","red-105","risky","safe","510","8","bandit-task","76","310999","0.0-3.0-0.73","44","low"
"75","safe","49","blue-218","red-105","risky","safe","598","8","bandit-task","77","314119","0.0-3.0-0.74","44","low"
"76","risky","59","blue-218","red-105","risky","safe","566","8","bandit-task","78","317496","0.0-3.0-0.75","44","low"
"77","risky","18","blue-218","red-105","risky","safe","997","8","bandit-task","79","321583","0.0-3.0-0.76","44","low"
"78","safe","49","blue-218","red-105","risky","safe","558","8","bandit-task","80","324751","0.0-3.0-0.77","44","low"
"79","safe","50","blue-218","red-105","risky","safe","742","8","bandit-task","81","327975","0.0-3.0-0.78","44","low"
"80","risky","71","blue-218","red-105","risky","safe","542","8","bandit-task","82","331639","0.0-3.0-0.79","44","low"
"81","safe","49","blue-218","red-105","risky","safe","598","8","bandit-task","83","334798","0.0-3.0-0.80","44","low"
"82","safe","49","blue-218","red-105","risky","safe","494","8","bandit-task","84","337878","0.0-3.0-0.81","44","low"
"83","risky","42","blue-218","red-105","risky","safe","574","8","bandit-task","85","341142","0.0-3.0-0.82","44","low"
"84","safe","52","blue-218","red-105","risky","safe","542","8","bandit-task","86","344134","0.0-3.0-0.83","44","low"
"85","safe","50","blue-218","red-105","risky","safe","606","8","bandit-task","87","347262","0.0-3.0-0.84","44","low"
"86","risky","66","blue-218","red-105","risky","safe","814","8","bandit-task","88","352710","0.0-3.0-0.85","44","low"
"87","safe","49","blue-218","red-105","risky","safe","942","8","bandit-task","89","356421","0.0-3.0-0.86","44","low"
"88","safe","51","blue-218","red-105","risky","safe","695","8","bandit-task","90","359677","0.0-3.0-0.87","44","low"
"89","risky","60","blue-218","red-105","risky","safe","655","8","bandit-task","91","362801","0.0-3.0-0.88","44","low"
"90","risky","44","blue-218","red-105","risky","safe","638","8","bandit-task","92","366168","0.0-3.0-0.89","44","low"
"91","safe","51","blue-218","red-105","risky","safe","590","8","bandit-task","93","369432","0.0-3.0-0.90","44","low"
"92","safe","51","blue-218","red-105","risky","safe","558","8","bandit-task","94","372480","0.0-3.0-0.91","44","low"
"93","risky","42","blue-218","red-105","risky","safe","631","8","bandit-task","95","376088","0.0-3.0-0.92","44","low"
"94","risky","53","blue-218","red-105","risky","safe","846","8","bandit-task","96","379648","0.0-3.0-0.93","44","low"
"95","risky","53","blue-218","red-105","risky","safe","430","8","bandit-task","97","382768","0.0-3.0-0.94","44","low"
"96","risky","58","blue-218","red-105","risky","safe","566","8","bandit-task","98","385776","0.0-3.0-0.95","44","low"
"97","risky","42","blue-218","red-105","risky","safe","582","8","bandit-task","99","388808","0.0-3.0-0.96","44","low"
"98","risky","35","blue-218","red-105","risky","safe","446","8","bandit-task","100","391952","0.0-3.0-0.97","44","low"
"99","safe","50","blue-218","red-105","risky","safe","558","8","bandit-task","101","395151","0.0-3.0-0.98","44","low"
"100","safe","49","blue-218","red-105","risky","safe","550","8","bandit-task","102","398199","0.0-3.0-0.99","44","low"
"101","risky","89","blue-218","red-105","risky","safe","598","8","bandit-task","103","401359","0.0-3.0-0.100","44","low"
"102","risky","82","blue-218","red-105","risky","safe","1070","8","bandit-task","104","405159","0.0-3.0-0.101","44","low"
"103","risky","49","blue-218","red-105","risky","safe","726","8","bandit-task","105","408526","0.0-3.0-0.102","44","low"
"104","safe","50","blue-218","red-105","risky","safe","542","8","bandit-task","106","411567","0.0-3.0-0.103","44","low"
"105","safe","50","blue-218","red-105","risky","safe","550","8","bandit-task","107","414590","0.0-3.0-0.104","44","low"
"106","risky","36","blue-218","red-105","risky","safe","478","8","bandit-task","108","417990","0.0-3.0-0.105","44","low"
"107","safe","51","blue-218","red-105","risky","safe","519","8","bandit-task","109","421078","0.0-3.0-0.106","44","low"
"108","safe","48","blue-218","red-105","risky","safe","574","8","bandit-task","110","424401","0.0-3.0-0.107","44","low"
"109","risky","73","blue-218","red-105","risky","safe","566","8","bandit-task","111","428192","0.0-3.0-0.108","44","low"
"110","risky","56","blue-218","red-105","risky","safe","742","8","bandit-task","112","431448","0.0-3.0-0.109","44","low"
