"trial","choice","feedback","left_stimulus","right_stimulus","left_option","right_option","rt","distribution","trial_type","trial_index","time_elapsed","internal_node_id","participant","condition"
"1","risky","40","red-83","blue-138","safe","risky","4933","2","bandit-task","3","63860","0.0-3.0-0.0","119","high"
"2","safe","49","red-39","blue-94","safe","risky","3974","2","bandit-task","4","70748","0.0-3.0-0.1","119","high"
"3","safe","50","red-206","blue-90","safe","risky","6430","2","bandit-task","5","79883","0.0-3.0-0.2","119","high"
"4","risky","55","red-20","blue-207","safe","risky","1462","2","bandit-task","6","84115","0.0-3.0-0.3","119","high"
"5","safe","49","red-4","blue-159","safe","risky","710","2","bandit-task","7","87611","0.0-3.0-0.4","119","high"
"6","safe","50","red-169","blue-124","safe","risky","2582","2","bandit-task","8","93042","0.0-3.0-0.5","119","high"
"7","safe","50","red-53","blue-143","safe","risky","1711","2","bandit-task","9","97605","0.0-3.0-0.6","119","high"
"8","risky","43","red-44","blue-105","safe","risky","1119","2","bandit-task","10","101533","0.0-3.0-0.7","119","high"
"9","risky","48","red-139","blue-146","safe","risky","1669","2","bandit-task","11","105781","0.0-3.0-0.8","119","high"
"10","safe","50","red-85","blue-212","safe","risky","1238","2","bandit-task","12","109573","0.0-3.0-0.9","119","high"
"11","risky","56","red-11","blue-140","safe","risky","694","2","bandit-task","13","113125","0.0-3.0-0.10","119","high"
"12","risky","23","red-213","blue-181","safe","risky","839","2","bandit-task","14","116564","0.0-3.0-0.11","119","high"
"13","safe","50","red-166","blue-111","safe","risky","1143","2","bandit-task","15","120516","0.0-3.0-0.12","119","high"
"14","safe","50","red-150","blue-164","safe","risky","1038","2","bandit-task","16","125068","0.0-3.0-0.13","119","high"
"15","safe","52","red-106","blue-142","safe","risky","1047","2","bandit-task","17","128997","0.0-3.0-0.14","119","high"
"16","risky","57","red-26","blue-47","safe","risky","1117","2","bandit-task","18","132844","0.0-3.0-0.15","119","high"
"17","risky","44","red-141","blue-46","safe","risky","902","2","bandit-task","19","136731","0.0-3.0-0.16","119","high"
"18","safe","50","red-200","blue-54","safe","risky","999","2","bandit-task","20","140459","0.0-3.0-0.17","119","high"
"19","risky","51","red-77","blue-118","safe","risky","862","2","bandit-task","21","144115","0.0-3.0-0.18","119","high"
"20","risky","41","red-189","blue-51","safe","risky","918","2","bandit-task","22","147755","0.0-3.0-0.19","119","high"
"21","risky","85","red-48","blue-101","safe","risky","838","2","bandit-task","23","151323","0.0-3.0-0.20","119","high"
"22","risky","27","red-19","blue-56","safe","risky","878","2","bandit-task","24","154987","0.0-3.0-0.21","119","high"
"23","safe","51","red-128","blue-29","safe","risky","1111","2","bandit-task","25","159150","0.0-3.0-0.22","119","high"
"24","risky","46","red-202","blue-185","safe","risky","958","2","bandit-task","26","162853","0.0-3.0-0.23","119","high"
"25","safe","50","red-107","blue-162","safe","risky","1206","2","bandit-task","27","166893","0.0-3.0-0.24","119","high"
"26","risky","33","red-163","blue-193","safe","risky","990","2","bandit-task","28","170605","0.0-3.0-0.25","119","high"
"27","risky","59","red-60","blue-110","safe","risky","910","2","bandit-task","29","174301","0.0-3.0-0.26","119","high"
"28","safe","49","red-2","blue-71","safe","risky","806","2","bandit-task","30","177804","0.0-3.0-0.27","119","high"
"29","risky","58","red-195","blue-197","safe","risky","903","2","bandit-task","31","182492","0.0-3.0-0.28","119","high"
"30","risky","62","red-99","blue-55","safe","risky","965","2","bandit-task","32","186036","0.0-3.0-0.29","119","high"
"31","safe","51","red-171","blue-40","safe","risky","710","2","bandit-task","33","189396","0.0-3.0-0.30","119","high"
"32","safe","49","red-220","blue-70","safe","risky","814","2","bandit-task","34","192932","0.0-3.0-0.31","119","high"
"33","risky","18","red-97","blue-183","safe","risky","798","2","bandit-task","35","196348","0.0-3.0-0.32","119","high"
"34","safe","51","red-198","blue-3","safe","risky","1039","2","bandit-task","36","200139","0.0-3.0-0.33","119","high"
"35","risky","63","red-42","blue-63","safe","risky","894","2","bandit-task","37","203835","0.0-3.0-0.34","119","high"
"36","risky","57","red-210","blue-186","safe","risky","894","2","bandit-task","38","207387","0.0-3.0-0.35","119","high"
"37","safe","49","red-10","blue-108","safe","risky","1134","2","bandit-task","39","211043","0.0-3.0-0.36","119","high"
"38","safe","49","red-129","blue-103","safe","risky","942","2","bandit-task","40","214907","0.0-3.0-0.37","119","high"
"39","risky","27","red-27","blue-123","safe","risky","830","2","bandit-task","41","218571","0.0-3.0-0.38","119","high"
"40","risky","59","red-180","blue-52","safe","risky","991","2","bandit-task","42","222357","0.0-3.0-0.39","119","high"
"41","safe","51","red-115","blue-49","safe","risky","838","2","bandit-task","43","225765","0.0-3.0-0.40","119","high"
"42","safe","49","red-117","blue-145","safe","risky","1031","2","bandit-task","44","229324","0.0-3.0-0.41","119","high"
"43","safe","50","red-41","blue-144","safe","risky","1175","2","bandit-task","45","233172","0.0-3.0-0.42","119","high"
"44","risky","83","red-65","blue-79","safe","risky","798","2","bandit-task","46","237284","0.0-3.0-0.43","119","high"
"45","risky","52","red-168","blue-119","safe","risky","1198","2","bandit-task","47","241037","0.0-3.0-0.44","119","high"
"46","risky","73","red-15","blue-72","safe","risky","1653","2","bandit-task","48","245340","0.0-3.0-0.45","119","high"
"47","risky","34","red-173","blue-82","safe","risky","2167","2","bandit-task","49","250459","0.0-3.0-0.46","119","high"
"48","safe","51","red-81","blue-22","safe","risky","911","2","bandit-task","50","254059","0.0-3.0-0.47","119","high"
"49","risky","31","red-120","blue-92","safe","risky","999","2","bandit-task","51","257531","0.0-3.0-0.48","119","high"
"50","safe","50","red-182","blue-8","safe","risky","1982","2","bandit-task","52","261947","0.0-3.0-0.49","119","high"
"51","safe","48","red-23","blue-12","safe","risky","1462","2","bandit-task","53","265883","0.0-3.0-0.50","119","high"
"52","risky","37","red-66","blue-59","safe","risky","814","2","bandit-task","54","269346","0.0-3.0-0.51","119","high"
"53","safe","49","red-98","blue-89","safe","risky","1119","2","bandit-task","55","273011","0.0-3.0-0.52","119","high"
"54","risky","36","red-148","blue-116","safe","risky","1694","2","bandit-task","56","277314","0.0-3.0-0.53","119","high"
"55","risky","53","red-156","blue-95","safe","risky","1334","2","bandit-task","57","281197","0.0-3.0-0.54","119","high"
"56","risky","75","red-216","blue-43","safe","risky","999","2","bandit-task","58","285125","0.0-3.0-0.55","119","high"
"57","safe","48","red-205","blue-170","safe","risky","839","2","bandit-task","59","288533","0.0-3.0-0.56","119","high"
"58","risky","31","red-134","blue-24","safe","risky","1062","2","bandit-task","60","292253","0.0-3.0-0.57","119","high"
"59","risky","17","red-184","blue-75","safe","risky","983","2","bandit-task","61","295893","0.0-3.0-0.58","119","high"
"60","risky","59","red-154","blue-34","safe","risky","1070","2","bandit-task","62","299588","0.0-3.0-0.59","119","high"
"61","safe","51","red-155","blue-204","safe","risky","1526","2","bandit-task","63","304300","0.0-3.0-0.60","119","high"
"62","safe","50","red-80","blue-219","safe","risky","1325","2","bandit-task","64","308436","0.0-3.0-0.61","119","high"
"63","risky","73","red-132","blue-21","safe","risky","1582","2","bandit-task","65","313092","0.0-3.0-0.62","119","high"
"64","risky","18","red-36","blue-61","safe","risky","1734","2","bandit-task","66","317516","0.0-3.0-0.63","119","high"
"65","safe","49","red-67","blue-133","safe","risky","1406","2","bandit-task","67","321539","0.0-3.0-0.64","119","high"
"66","risky","54","red-104","blue-135","safe","risky","775","2","bandit-task","68","324811","0.0-3.0-0.65","119","high"
"67","risky","53","red-191","blue-68","safe","risky","863","2","bandit-task","69","328235","0.0-3.0-0.66","119","high"
"68","safe","50","red-158","blue-137","safe","risky","910","2","bandit-task","70","331747","0.0-3.0-0.67","119","high"
"69","safe","49","red-84","blue-208","safe","risky","1470","2","bandit-task","71","335915","0.0-3.0-0.68","119","high"
"70","risky","11","red-73","blue-121","safe","risky","1502","2","bandit-task","72","340130","0.0-3.0-0.69","119","high"
"71","safe","48","red-30","blue-160","safe","risky","950","2","bandit-task","73","343733","0.0-3.0-0.70","119","high"
"72","safe","48","red-136","blue-172","safe","risky","2718","2","bandit-task","74","348933","0.0-3.0-0.71","119","high"
"73","risky","44","red-69","blue-114","safe","risky","886","2","bandit-task","75","352341","0.0-3.0-0.72","119","high"
"74","safe","48","red-93","blue-190","safe","risky","958","2","bandit-task","76","356484","0.0-3.0-0.73","119","high"
"75","risky","49","red-192","blue-157","safe","risky","1262","2","bandit-task","77","360468","0.0-3.0-0.74","119","high"
"76","safe","50","red-177","blue-109","safe","risky","1742","2","bandit-task","78","365596","0.0-3.0-0.75","119","high"
"77","safe","50","red-149","blue-16","safe","risky","1454","2","bandit-task","79","370236","0.0-3.0-0.76","119","high"
"78","safe","51","red-127","blue-18","safe","risky","2102","2","bandit-task","80","375083","0.0-3.0-0.77","119","high"
"79","risky","16","red-188","blue-13","safe","risky","2366","2","bandit-task","81","380123","0.0-3.0-0.78","119","high"
"80","safe","50","red-74","blue-215","safe","risky","733","2","bandit-task","82","383395","0.0-3.0-0.79","119","high"
"81","safe","47","red-179","blue-58","safe","risky","1822","2","bandit-task","83","387922","0.0-3.0-0.80","119","high"
"82","risky","25","red-76","blue-33","safe","risky","886","2","bandit-task","84","391275","0.0-3.0-0.81","119","high"
"83","safe","48","red-113","blue-217","safe","risky","558","2","bandit-task","85","394314","0.0-3.0-0.82","119","high"
"84","safe","49","red-32","blue-102","safe","risky","926","2","bandit-task","86","397746","0.0-3.0-0.83","119","high"
"85","safe","50","red-17","blue-1","safe","risky","575","2","bandit-task","87","400754","0.0-3.0-0.84","119","high"
"86","safe","49","red-78","blue-9","safe","risky","526","2","bandit-task","88","403725","0.0-3.0-0.85","119","high"
"87","safe","49","red-112","blue-151","safe","risky","471","2","bandit-task","89","406597","0.0-3.0-0.86","119","high"
"88","safe","51","red-199","blue-45","safe","risky","486","2","bandit-task","90","409589","0.0-3.0-0.87","119","high"
"89","safe","50","red-196","blue-5","safe","risky","550","2","bandit-task","91","412733","0.0-3.0-0.88","119","high"
"90","safe","49","red-6","blue-87","safe","risky","486","2","bandit-task","92","415709","0.0-3.0-0.89","119","high"
"91","safe","49","red-167","blue-86","safe","risky","438","2","bandit-task","93","418604","0.0-3.0-0.90","119","high"
"92","safe","51","red-62","blue-209","safe","risky","470","2","bandit-task","94","421580","0.0-3.0-0.91","119","high"
"93","safe","50","red-211","blue-122","safe","risky","423","2","bandit-task","95","424412","0.0-3.0-0.92","119","high"
"94","safe","50","red-175","blue-165","safe","risky","342","2","bandit-task","96","427380","0.0-3.0-0.93","119","high"
"95","safe","51","red-218","blue-161","safe","risky","670","2","bandit-task","97","430516","0.0-3.0-0.94","119","high"
"96","safe","50","red-130","blue-88","safe","risky","422","2","bandit-task","98","433812","0.0-3.0-0.95","119","high"
"97","safe","52","red-38","blue-50","safe","risky","614","2","bandit-task","99","437300","0.0-3.0-0.96","119","high"
"98","safe","49","red-31","blue-100","safe","risky","686","2","bandit-task","100","440675","0.0-3.0-0.97","119","high"
"99","safe","51","red-147","blue-153","safe","risky","646","2","bandit-task","101","443755","0.0-3.0-0.98","119","high"
"100","safe","50","red-57","blue-64","safe","risky","471","2","bandit-task","102","446787","0.0-3.0-0.99","119","high"
"101","safe","50","red-131","blue-174","safe","risky","453","2","bandit-task","103","449675","0.0-3.0-0.100","119","high"
"102","safe","49","red-14","blue-37","safe","risky","422","2","bandit-task","104","452747","0.0-3.0-0.101","119","high"
"103","safe","47","red-152","blue-91","safe","risky","422","2","bandit-task","105","455659","0.0-3.0-0.102","119","high"
"104","safe","50","red-201","blue-125","safe","risky","429","2","bandit-task","106","458539","0.0-3.0-0.103","119","high"
"105","safe","50","red-187","blue-25","safe","risky","462","2","bandit-task","107","461930","0.0-3.0-0.104","119","high"
"106","safe","51","red-28","blue-176","safe","risky","621","2","bandit-task","108","465542","0.0-3.0-0.105","119","high"
"107","risky","45","red-126","blue-214","safe","risky","582","2","bandit-task","109","468773","0.0-3.0-0.106","119","high"
"108","safe","51","red-7","blue-35","safe","risky","462","2","bandit-task","110","471909","0.0-3.0-0.107","119","high"
"109","safe","50","red-96","blue-203","safe","risky","422","2","bandit-task","111","474749","0.0-3.0-0.108","119","high"
"110","safe","51","red-178","blue-194","safe","risky","405","2","bandit-task","112","477557","0.0-3.0-0.109","119","high"
