"trial","choice","feedback","left_stimulus","right_stimulus","left_option","right_option","rt","distribution","trial_type","trial_index","time_elapsed","internal_node_id","participant","condition"
"1","risky","50","blue-99","red-133","risky","safe","5949","9","bandit-task","3","39191","0.0-3.0-0.0","5","low"
"2","safe","50","blue-99","red-133","risky","safe","1237","9","bandit-task","4","43165","0.0-3.0-0.1","5","low"
"3","safe","51","blue-99","red-133","risky","safe","1567","9","bandit-task","5","47317","0.0-3.0-0.2","5","low"
"4","safe","47","blue-99","red-133","risky","safe","1431","9","bandit-task","6","51325","0.0-3.0-0.3","5","low"
"5","risky","67","blue-99","red-133","risky","safe","734","9","bandit-task","7","54693","0.0-3.0-0.4","5","low"
"6","risky","21","blue-99","red-133","risky","safe","919","9","bandit-task","8","57821","0.0-3.0-0.5","5","low"
"7","safe","50","blue-99","red-133","risky","safe","791","9","bandit-task","9","61045","0.0-3.0-0.6","5","low"
"8","safe","48","blue-99","red-133","risky","safe","647","9","bandit-task","10","64301","0.0-3.0-0.7","5","low"
"9","safe","50","blue-99","red-133","risky","safe","534","9","bandit-task","11","67484","0.0-3.0-0.8","5","low"
"10","risky","56","blue-99","red-133","risky","safe","551","9","bandit-task","12","70620","0.0-3.0-0.9","5","low"
"11","risky","62","blue-99","red-133","risky","safe","686","9","bandit-task","13","73740","0.0-3.0-0.10","5","low"
"12","risky","32","blue-99","red-133","risky","safe","654","9","bandit-task","14","76975","0.0-3.0-0.11","5","low"
"13","safe","51","blue-99","red-133","risky","safe","479","9","bandit-task","15","82247","0.0-3.0-0.12","5","low"
"14","risky","49","blue-99","red-133","risky","safe","1583","9","bandit-task","16","86502","0.0-3.0-0.13","5","low"
"15","safe","51","blue-99","red-133","risky","safe","807","9","bandit-task","17","89950","0.0-3.0-0.14","5","low"
"16","safe","51","blue-99","red-133","risky","safe","670","9","bandit-task","18","93134","0.0-3.0-0.15","5","low"
"17","safe","50","blue-99","red-133","risky","safe","870","9","bandit-task","19","96518","0.0-3.0-0.16","5","low"
"18","risky","78","blue-99","red-133","risky","safe","582","9","bandit-task","20","99830","0.0-3.0-0.17","5","low"
"19","risky","57","blue-99","red-133","risky","safe","861","9","bandit-task","21","103221","0.0-3.0-0.18","5","low"
"20","safe","49","blue-99","red-133","risky","safe","559","9","bandit-task","22","106366","0.0-3.0-0.19","5","low"
"21","risky","28","blue-99","red-133","risky","safe","575","9","bandit-task","23","109349","0.0-3.0-0.20","5","low"
"22","risky","65","blue-99","red-133","risky","safe","407","9","bandit-task","24","112381","0.0-3.0-0.21","5","low"
"23","safe","51","blue-99","red-133","risky","safe","806","9","bandit-task","25","115629","0.0-3.0-0.22","5","low"
"24","risky","21","blue-99","red-133","risky","safe","726","9","bandit-task","26","119517","0.0-3.0-0.23","5","low"
"25","risky","84","blue-99","red-133","risky","safe","463","9","bandit-task","27","122484","0.0-3.0-0.24","5","low"
"26","risky","40","blue-99","red-133","risky","safe","855","9","bandit-task","28","125821","0.0-3.0-0.25","5","low"
"27","safe","46","blue-99","red-133","risky","safe","775","9","bandit-task","29","129044","0.0-3.0-0.26","5","low"
"28","safe","51","blue-99","red-133","risky","safe","438","9","bandit-task","30","131924","0.0-3.0-0.27","5","low"
"29","safe","50","blue-99","red-133","risky","safe","598","9","bandit-task","31","135012","0.0-3.0-0.28","5","low"
"30","risky","51","blue-99","red-133","risky","safe","518","9","bandit-task","32","137999","0.0-3.0-0.29","5","low"
"31","risky","42","blue-99","red-133","risky","safe","607","9","bandit-task","33","141030","0.0-3.0-0.30","5","low"
"32","risky","38","blue-99","red-133","risky","safe","550","9","bandit-task","34","144054","0.0-3.0-0.31","5","low"
"33","risky","38","blue-99","red-133","risky","safe","454","9","bandit-task","35","147190","0.0-3.0-0.32","5","low"
"34","risky","29","blue-99","red-133","risky","safe","503","9","bandit-task","36","150142","0.0-3.0-0.33","5","low"
"35","risky","47","blue-99","red-133","risky","safe","470","9","bandit-task","37","153046","0.0-3.0-0.34","5","low"
"36","risky","57","blue-99","red-133","risky","safe","463","9","bandit-task","38","155918","0.0-3.0-0.35","5","low"
"37","risky","40","blue-99","red-133","risky","safe","463","9","bandit-task","39","158933","0.0-3.0-0.36","5","low"
"38","safe","50","blue-99","red-133","risky","safe","431","9","bandit-task","40","161789","0.0-3.0-0.37","5","low"
"39","safe","49","blue-99","red-133","risky","safe","414","9","bandit-task","41","164765","0.0-3.0-0.38","5","low"
"40","risky","39","blue-99","red-133","risky","safe","478","9","bandit-task","42","167653","0.0-3.0-0.39","5","low"
"41","risky","21","blue-99","red-133","risky","safe","430","9","bandit-task","43","170637","0.0-3.0-0.40","5","low"
"42","risky","30","blue-99","red-133","risky","safe","926","9","bandit-task","44","173989","0.0-3.0-0.41","5","low"
"43","safe","51","blue-99","red-133","risky","safe","463","9","bandit-task","45","176885","0.0-3.0-0.42","5","low"
"44","safe","49","blue-99","red-133","risky","safe","423","9","bandit-task","46","179749","0.0-3.0-0.43","5","low"
"45","safe","51","blue-99","red-133","risky","safe","462","9","bandit-task","47","182860","0.0-3.0-0.44","5","low"
"46","safe","52","blue-99","red-133","risky","safe","645","9","bandit-task","48","185940","0.0-3.0-0.45","5","low"
"47","safe","49","blue-99","red-133","risky","safe","670","9","bandit-task","49","189076","0.0-3.0-0.46","5","low"
"48","risky","12","blue-99","red-133","risky","safe","542","9","bandit-task","50","192436","0.0-3.0-0.47","5","low"
"49","risky","38","blue-99","red-133","risky","safe","454","9","bandit-task","51","195300","0.0-3.0-0.48","5","low"
"50","safe","51","blue-99","red-133","risky","safe","399","9","bandit-task","52","198263","0.0-3.0-0.49","5","low"
"51","safe","50","blue-99","red-133","risky","safe","535","9","bandit-task","53","201207","0.0-3.0-0.50","5","low"
"52","safe","51","blue-99","red-133","risky","safe","582","9","bandit-task","54","204206","0.0-3.0-0.51","5","low"
"53","safe","49","blue-99","red-133","risky","safe","414","9","bandit-task","55","207278","0.0-3.0-0.52","5","low"
"54","safe","50","blue-99","red-133","risky","safe","398","9","bandit-task","56","210078","0.0-3.0-0.53","5","low"
"55","risky","49","blue-99","red-133","risky","safe","518","9","bandit-task","57","213022","0.0-3.0-0.54","5","low"
"56","risky","77","blue-99","red-133","risky","safe","406","9","bandit-task","58","216102","0.0-3.0-0.55","5","low"
"57","risky","18","blue-99","red-133","risky","safe","390","9","bandit-task","59","218885","0.0-3.0-0.56","5","low"
"58","risky","50","blue-99","red-133","risky","safe","399","9","bandit-task","60","221829","0.0-3.0-0.57","5","low"
"59","safe","51","blue-99","red-133","risky","safe","398","9","bandit-task","61","224669","0.0-3.0-0.58","5","low"
"60","safe","50","blue-99","red-133","risky","safe","471","9","bandit-task","62","227557","0.0-3.0-0.59","5","low"
"61","risky","41","blue-99","red-133","risky","safe","374","9","bandit-task","63","230404","0.0-3.0-0.60","5","low"
"62","safe","50","blue-99","red-133","risky","safe","423","9","bandit-task","64","233541","0.0-3.0-0.61","5","low"
"63","safe","49","blue-99","red-133","risky","safe","367","9","bandit-task","65","236469","0.0-3.0-0.62","5","low"
"64","safe","49","blue-99","red-133","risky","safe","374","9","bandit-task","66","239268","0.0-3.0-0.63","5","low"
"65","safe","50","blue-99","red-133","risky","safe","462","9","bandit-task","67","242276","0.0-3.0-0.64","5","low"
"66","safe","50","blue-99","red-133","risky","safe","350","9","bandit-task","68","245180","0.0-3.0-0.65","5","low"
"67","risky","59","blue-99","red-133","risky","safe","366","9","bandit-task","69","248060","0.0-3.0-0.66","5","low"
"68","risky","67","blue-99","red-133","risky","safe","350","9","bandit-task","70","250908","0.0-3.0-0.67","5","low"
"69","risky","40","blue-99","red-133","risky","safe","334","9","bandit-task","71","253668","0.0-3.0-0.68","5","low"
"70","safe","51","blue-99","red-133","risky","safe","382","9","bandit-task","72","256795","0.0-3.0-0.69","5","low"
"71","safe","51","blue-99","red-133","risky","safe","487","9","bandit-task","73","259702","0.0-3.0-0.70","5","low"
"72","safe","52","blue-99","red-133","risky","safe","397","9","bandit-task","74","262694","0.0-3.0-0.71","5","low"
"73","safe","49","blue-99","red-133","risky","safe","358","9","bandit-task","75","265454","0.0-3.0-0.72","5","low"
"74","safe","49","blue-99","red-133","risky","safe","350","9","bandit-task","76","268366","0.0-3.0-0.73","5","low"
"75","safe","50","blue-99","red-133","risky","safe","366","9","bandit-task","77","271182","0.0-3.0-0.74","5","low"
"76","risky","64","blue-99","red-133","risky","safe","494","9","bandit-task","78","274117","0.0-3.0-0.75","5","low"
"77","risky","44","blue-99","red-133","risky","safe","607","9","bandit-task","79","277190","0.0-3.0-0.76","5","low"
"78","risky","28","blue-99","red-133","risky","safe","620","9","bandit-task","80","280277","0.0-3.0-0.77","5","low"
"79","risky","58","blue-99","red-133","risky","safe","358","9","bandit-task","81","283101","0.0-3.0-0.78","5","low"
"80","safe","51","blue-99","red-133","risky","safe","558","9","bandit-task","82","286397","0.0-3.0-0.79","5","low"
"81","risky","42","blue-99","red-133","risky","safe","406","9","bandit-task","83","289269","0.0-3.0-0.80","5","low"
"82","risky","39","blue-99","red-133","risky","safe","415","9","bandit-task","84","292069","0.0-3.0-0.81","5","low"
"83","safe","52","blue-99","red-133","risky","safe","406","9","bandit-task","85","294932","0.0-3.0-0.82","5","low"
"84","safe","50","blue-99","red-133","risky","safe","527","9","bandit-task","86","298116","0.0-3.0-0.83","5","low"
"85","risky","45","blue-99","red-133","risky","safe","438","9","bandit-task","87","300948","0.0-3.0-0.84","5","low"
"86","risky","44","blue-99","red-133","risky","safe","598","9","bandit-task","88","303900","0.0-3.0-0.85","5","low"
"87","risky","70","blue-99","red-133","risky","safe","422","9","bandit-task","89","306788","0.0-3.0-0.86","5","low"
"88","risky","54","blue-99","red-133","risky","safe","462","9","bandit-task","90","309644","0.0-3.0-0.87","5","low"
"89","safe","50","blue-99","red-133","risky","safe","630","9","bandit-task","91","312779","0.0-3.0-0.88","5","low"
"90","safe","50","blue-99","red-133","risky","safe","566","9","bandit-task","92","315747","0.0-3.0-0.89","5","low"
"91","risky","53","blue-99","red-133","risky","safe","462","9","bandit-task","93","318659","0.0-3.0-0.90","5","low"
"92","risky","29","blue-99","red-133","risky","safe","471","9","bandit-task","94","321511","0.0-3.0-0.91","5","low"
"93","risky","33","blue-99","red-133","risky","safe","374","9","bandit-task","95","324319","0.0-3.0-0.92","5","low"
"94","risky","34","blue-99","red-133","risky","safe","454","9","bandit-task","96","327199","0.0-3.0-0.93","5","low"
"95","risky","51","blue-99","red-133","risky","safe","375","9","bandit-task","97","330014","0.0-3.0-0.94","5","low"
"96","risky","66","blue-99","red-133","risky","safe","414","9","bandit-task","98","332870","0.0-3.0-0.95","5","low"
"97","risky","41","blue-99","red-133","risky","safe","399","9","bandit-task","99","335726","0.0-3.0-0.96","5","low"
"98","risky","74","blue-99","red-133","risky","safe","415","9","bandit-task","100","338566","0.0-3.0-0.97","5","low"
"99","risky","41","blue-99","red-133","risky","safe","398","9","bandit-task","101","341526","0.0-3.0-0.98","5","low"
"100","risky","58","blue-99","red-133","risky","safe","726","9","bandit-task","102","344718","0.0-3.0-0.99","5","low"
"101","risky","59","blue-99","red-133","risky","safe","910","9","bandit-task","103","348038","0.0-3.0-0.100","5","low"
"102","risky","35","blue-99","red-133","risky","safe","710","9","bandit-task","104","351341","0.0-3.0-0.101","5","low"
"103","safe","50","blue-99","red-133","risky","safe","423","9","bandit-task","105","354173","0.0-3.0-0.102","5","low"
"104","risky","50","blue-99","red-133","risky","safe","470","9","bandit-task","106","357189","0.0-3.0-0.103","5","low"
"105","risky","31","blue-99","red-133","risky","safe","758","9","bandit-task","107","360461","0.0-3.0-0.104","5","low"
"106","risky","83","blue-99","red-133","risky","safe","390","9","bandit-task","108","363349","0.0-3.0-0.105","5","low"
"107","safe","51","blue-99","red-133","risky","safe","414","9","bandit-task","109","366149","0.0-3.0-0.106","5","low"
"108","risky","53","blue-99","red-133","risky","safe","478","9","bandit-task","110","369053","0.0-3.0-0.107","5","low"
"109","risky","29","blue-99","red-133","risky","safe","382","9","bandit-task","111","371908","0.0-3.0-0.108","5","low"
"110","risky","57","blue-99","red-133","risky","safe","382","9","bandit-task","112","374868","0.0-3.0-0.109","5","low"
