"trial","choice","feedback","left_stimulus","right_stimulus","left_option","right_option","rt","distribution","trial_type","trial_index","time_elapsed","internal_node_id","participant","condition"
"1","risky","14","blue-197","red-154","risky","safe","3383","5","bandit-task","3","71412","0.0-3.0-0.0","61","high"
"2","safe","51","blue-66","red-149","risky","safe","3574","5","bandit-task","4","78628","0.0-3.0-0.1","61","high"
"3","safe","51","blue-75","red-181","risky","safe","3919","5","bandit-task","5","85483","0.0-3.0-0.2","61","high"
"4","risky","36","blue-41","red-80","risky","safe","3087","5","bandit-task","6","91555","0.0-3.0-0.3","61","high"
"5","safe","48","blue-182","red-166","risky","safe","2102","5","bandit-task","7","96515","0.0-3.0-0.4","61","high"
"6","safe","49","blue-150","red-125","risky","safe","5630","5","bandit-task","8","104938","0.0-3.0-0.5","61","high"
"7","risky","43","blue-1","red-158","risky","safe","3031","5","bandit-task","9","110762","0.0-3.0-0.6","61","high"
"8","safe","49","blue-4","red-186","risky","safe","4510","5","bandit-task","10","117996","0.0-3.0-0.7","61","high"
"9","risky","56","blue-15","red-29","risky","safe","3014","5","bandit-task","11","123836","0.0-3.0-0.8","61","high"
"10","risky","38","blue-78","red-139","risky","safe","2398","5","bandit-task","12","128916","0.0-3.0-0.9","61","high"
"11","risky","59","blue-185","red-59","risky","safe","5110","5","bandit-task","13","141379","0.0-3.0-0.10","61","high"
"12","risky","40","blue-34","red-97","risky","safe","4190","5","bandit-task","14","148459","0.0-3.0-0.11","61","high"
"13","safe","51","blue-155","red-127","risky","safe","2005","5","bandit-task","15","152883","0.0-3.0-0.12","61","high"
"14","risky","40","blue-45","red-156","risky","safe","6030","5","bandit-task","16","161546","0.0-3.0-0.13","61","high"
"15","risky","56","blue-169","red-172","risky","safe","1510","5","bandit-task","17","165714","0.0-3.0-0.14","61","high"
"16","risky","66","blue-212","red-135","risky","safe","2062","5","bandit-task","18","170434","0.0-3.0-0.15","61","high"
"17","risky","38","blue-112","red-141","risky","safe","2039","5","bandit-task","19","175129","0.0-3.0-0.16","61","high"
"18","risky","34","blue-99","red-77","risky","safe","7145","5","bandit-task","20","184860","0.0-3.0-0.17","61","high"
"19","safe","49","blue-62","red-38","risky","safe","2478","5","bandit-task","21","190220","0.0-3.0-0.18","61","high"
"20","risky","22","blue-14","red-44","risky","safe","1686","5","bandit-task","22","194548","0.0-3.0-0.19","61","high"
"21","safe","51","blue-61","red-200","risky","safe","2678","5","bandit-task","23","200267","0.0-3.0-0.20","61","high"
"22","risky","66","blue-142","red-219","risky","safe","1783","5","bandit-task","24","204979","0.0-3.0-0.21","61","high"
"23","risky","46","blue-173","red-217","risky","safe","4182","5","bandit-task","25","212083","0.0-3.0-0.22","61","high"
"24","risky","74","blue-115","red-162","risky","safe","2478","5","bandit-task","26","217170","0.0-3.0-0.23","61","high"
"25","risky","54","blue-86","red-49","risky","safe","5079","5","bandit-task","27","225098","0.0-3.0-0.24","61","high"
"26","risky","42","blue-95","red-50","risky","safe","1966","5","bandit-task","28","229754","0.0-3.0-0.25","61","high"
"27","safe","51","blue-92","red-151","risky","safe","9421","5","bandit-task","29","241649","0.0-3.0-0.26","61","high"
"28","risky","85","blue-11","red-22","risky","safe","2144","5","bandit-task","30","246474","0.0-3.0-0.27","61","high"
"29","risky","39","blue-23","red-74","risky","safe","2030","5","bandit-task","31","251346","0.0-3.0-0.28","61","high"
"30","safe","51","blue-201","red-159","risky","safe","1246","5","bandit-task","32","255106","0.0-3.0-0.29","61","high"
"31","risky","30","blue-208","red-42","risky","safe","2695","5","bandit-task","33","260434","0.0-3.0-0.30","61","high"
"32","risky","62","blue-91","red-46","risky","safe","1534","5","bandit-task","34","264465","0.0-3.0-0.31","61","high"
"33","safe","49","blue-220","red-37","risky","safe","1646","5","bandit-task","35","268537","0.0-3.0-0.32","61","high"
"34","safe","52","blue-215","red-17","risky","safe","3334","5","bandit-task","36","274481","0.0-3.0-0.33","61","high"
"35","safe","53","blue-47","red-128","risky","safe","2502","5","bandit-task","37","280328","0.0-3.0-0.34","61","high"
"36","risky","79","blue-53","red-60","risky","safe","1703","5","bandit-task","38","284760","0.0-3.0-0.35","61","high"
"37","safe","49","blue-84","red-48","risky","safe","2398","5","bandit-task","39","290193","0.0-3.0-0.36","61","high"
"38","risky","63","blue-83","red-7","risky","safe","1735","5","bandit-task","40","295096","0.0-3.0-0.37","61","high"
"39","safe","49","blue-165","red-116","risky","safe","2502","5","bandit-task","41","300927","0.0-3.0-0.38","61","high"
"40","risky","56","blue-195","red-114","risky","safe","1768","5","bandit-task","42","305924","0.0-3.0-0.39","61","high"
"41","safe","50","blue-214","red-93","risky","safe","2334","5","bandit-task","43","311163","0.0-3.0-0.40","61","high"
"42","risky","30","blue-188","red-179","risky","safe","1862","5","bandit-task","44","315435","0.0-3.0-0.41","61","high"
"43","risky","60","blue-175","red-55","risky","safe","1575","5","bandit-task","45","319787","0.0-3.0-0.42","61","high"
"44","safe","50","blue-90","red-102","risky","safe","2374","5","bandit-task","46","324747","0.0-3.0-0.43","61","high"
"45","risky","85","blue-98","red-124","risky","safe","4542","5","bandit-task","47","332050","0.0-3.0-0.44","61","high"
"46","risky","36","blue-170","red-111","risky","safe","1414","5","bandit-task","48","335922","0.0-3.0-0.45","61","high"
"47","risky","21","blue-76","red-138","risky","safe","2397","5","bandit-task","49","341306","0.0-3.0-0.46","61","high"
"48","safe","50","blue-3","red-12","risky","safe","1782","5","bandit-task","50","345962","0.0-3.0-0.47","61","high"
"49","safe","52","blue-32","red-113","risky","safe","4382","5","bandit-task","51","352778","0.0-3.0-0.48","61","high"
"50","safe","52","blue-43","red-177","risky","safe","6054","5","bandit-task","52","361481","0.0-3.0-0.49","61","high"
"51","safe","51","blue-10","red-68","risky","safe","2309","5","bandit-task","53","366740","0.0-3.0-0.50","61","high"
"52","risky","62","blue-178","red-145","risky","safe","1646","5","bandit-task","54","371084","0.0-3.0-0.51","61","high"
"53","risky","67","blue-153","red-122","risky","safe","1791","5","bandit-task","55","375539","0.0-3.0-0.52","61","high"
"54","risky","50","blue-144","red-126","risky","safe","2063","5","bandit-task","56","380283","0.0-3.0-0.53","61","high"
"55","safe","50","blue-136","red-211","risky","safe","2678","5","bandit-task","57","386987","0.0-3.0-0.54","61","high"
"56","safe","49","blue-40","red-51","risky","safe","3158","5","bandit-task","58","392979","0.0-3.0-0.55","61","high"
"57","risky","35","blue-58","red-123","risky","safe","3543","5","bandit-task","59","399258","0.0-3.0-0.56","61","high"
"58","risky","22","blue-152","red-101","risky","safe","3254","5","bandit-task","60","405130","0.0-3.0-0.57","61","high"
"59","risky","19","blue-133","red-94","risky","safe","1646","5","bandit-task","61","410402","0.0-3.0-0.58","61","high"
"60","risky","46","blue-119","red-157","risky","safe","1710","5","bandit-task","62","414786","0.0-3.0-0.59","61","high"
"61","risky","78","blue-24","red-21","risky","safe","1606","5","bandit-task","63","418985","0.0-3.0-0.60","61","high"
"62","risky","44","blue-132","red-87","risky","safe","3646","5","bandit-task","64","425481","0.0-3.0-0.61","61","high"
"63","risky","54","blue-198","red-118","risky","safe","1489","5","bandit-task","65","429459","0.0-3.0-0.62","61","high"
"64","risky","60","blue-209","red-216","risky","safe","1599","5","bandit-task","66","433835","0.0-3.0-0.63","61","high"
"65","safe","52","blue-184","red-171","risky","safe","1990","5","bandit-task","67","438955","0.0-3.0-0.64","61","high"
"66","risky","28","blue-52","red-202","risky","safe","9629","5","bandit-task","68","451730","0.0-3.0-0.65","61","high"
"67","risky","53","blue-54","red-164","risky","safe","1503","5","bandit-task","69","456450","0.0-3.0-0.66","61","high"
"68","safe","51","blue-5","red-168","risky","safe","974","5","bandit-task","70","459930","0.0-3.0-0.67","61","high"
"69","risky","56","blue-25","red-183","risky","safe","3038","5","bandit-task","71","465594","0.0-3.0-0.68","61","high"
"70","risky","58","blue-9","red-30","risky","safe","1654","5","bandit-task","72","469969","0.0-3.0-0.69","61","high"
"71","risky","32","blue-129","red-106","risky","safe","2982","5","bandit-task","73","475817","0.0-3.0-0.70","61","high"
"72","risky","50","blue-79","red-104","risky","safe","2357","5","bandit-task","74","480721","0.0-3.0-0.71","61","high"
"73","safe","48","blue-18","red-67","risky","safe","1670","5","bandit-task","75","485224","0.0-3.0-0.72","61","high"
"74","risky","74","blue-121","red-73","risky","safe","8962","5","bandit-task","76","496828","0.0-3.0-0.73","61","high"
"75","risky","87","blue-207","red-81","risky","safe","3557","5","bandit-task","77","503043","0.0-3.0-0.74","61","high"
"76","risky","81","blue-161","red-190","risky","safe","3909","5","bandit-task","78","509627","0.0-3.0-0.75","61","high"
"77","safe","51","blue-107","red-134","risky","safe","5646","5","bandit-task","79","517930","0.0-3.0-0.76","61","high"
"78","risky","52","blue-213","red-109","risky","safe","2662","5","bandit-task","80","523258","0.0-3.0-0.77","61","high"
"79","risky","70","blue-196","red-82","risky","safe","15797","5","bandit-task","81","541817","0.0-3.0-0.78","61","high"
"80","risky","46","blue-189","red-131","risky","safe","2470","5","bandit-task","82","547105","0.0-3.0-0.79","61","high"
"81","safe","49","blue-65","red-147","risky","safe","1885","5","bandit-task","83","552008","0.0-3.0-0.80","61","high"
"82","risky","16","blue-100","red-137","risky","safe","2186","5","bandit-task","84","558724","0.0-3.0-0.81","61","high"
"83","risky","81","blue-71","red-39","risky","safe","4461","5","bandit-task","85","565883","0.0-3.0-0.82","61","high"
"84","risky","50","blue-130","red-89","risky","safe","3421","5","bandit-task","86","571963","0.0-3.0-0.83","61","high"
"85","risky","26","blue-120","red-108","risky","safe","1518","5","bandit-task","87","576203","0.0-3.0-0.84","61","high"
"86","risky","39","blue-163","red-218","risky","safe","2231","5","bandit-task","88","581234","0.0-3.0-0.85","61","high"
"87","risky","35","blue-204","red-146","risky","safe","2333","5","bandit-task","89","585978","0.0-3.0-0.86","61","high"
"88","safe","50","blue-105","red-210","risky","safe","2614","5","bandit-task","90","592114","0.0-3.0-0.87","61","high"
"89","risky","59","blue-187","red-103","risky","safe","3566","5","bandit-task","91","598258","0.0-3.0-0.88","61","high"
"90","risky","16","blue-2","red-160","risky","safe","1430","5","bandit-task","92","602370","0.0-3.0-0.89","61","high"
"91","risky","39","blue-117","red-36","risky","safe","2206","5","bandit-task","93","607225","0.0-3.0-0.90","61","high"
"92","safe","50","blue-20","red-192","risky","safe","1926","5","bandit-task","94","611761","0.0-3.0-0.91","61","high"
"93","risky","80","blue-193","red-143","risky","safe","1270","5","bandit-task","95","615642","0.0-3.0-0.92","61","high"
"94","safe","50","blue-35","red-16","risky","safe","1639","5","bandit-task","96","619955","0.0-3.0-0.93","61","high"
"95","safe","50","blue-8","red-167","risky","safe","1829","5","bandit-task","97","624642","0.0-3.0-0.94","61","high"
"96","risky","34","blue-72","red-33","risky","safe","5182","5","bandit-task","98","633810","0.0-3.0-0.95","61","high"
"97","safe","50","blue-13","red-110","risky","safe","2206","5","bandit-task","99","639201","0.0-3.0-0.96","61","high"
"98","safe","53","blue-140","red-26","risky","safe","8909","5","bandit-task","100","651177","0.0-3.0-0.97","61","high"
"99","risky","84","blue-28","red-27","risky","safe","2398","5","bandit-task","101","656040","0.0-3.0-0.98","61","high"
"100","risky","18","blue-69","red-19","risky","safe","2846","5","bandit-task","102","661544","0.0-3.0-0.99","61","high"
"101","safe","51","blue-31","red-203","risky","safe","2503","5","bandit-task","103","666512","0.0-3.0-0.100","61","high"
"102","safe","50","blue-85","red-174","risky","safe","1613","5","bandit-task","104","670968","0.0-3.0-0.101","61","high"
"103","risky","41","blue-199","red-205","risky","safe","4190","5","bandit-task","105","677939","0.0-3.0-0.102","61","high"
"104","risky","31","blue-191","red-206","risky","safe","973","5","bandit-task","106","681530","0.0-3.0-0.103","61","high"
"105","risky","69","blue-6","red-64","risky","safe","2926","5","bandit-task","107","687914","0.0-3.0-0.104","61","high"
"106","risky","53","blue-57","red-194","risky","safe","4469","5","bandit-task","108","695394","0.0-3.0-0.105","61","high"
"107","risky","51","blue-56","red-63","risky","safe","4550","5","bandit-task","109","703050","0.0-3.0-0.106","61","high"
"108","risky","18","blue-70","red-176","risky","safe","1142","5","bandit-task","110","706625","0.0-3.0-0.107","61","high"
"109","safe","50","blue-88","red-96","risky","safe","1765","5","bandit-task","111","711513","0.0-3.0-0.108","61","high"
"110","risky","33","blue-180","red-148","risky","safe","1271","5","bandit-task","112","715321","0.0-3.0-0.109","61","high"
