"trial","choice","feedback","left_stimulus","right_stimulus","left_option","right_option","rt","distribution","trial_type","trial_index","time_elapsed","internal_node_id","participant","condition"
"1","risky","53","blue-160","red-113","risky","safe","1885","1","bandit-task","3","48170","0.0-3.0-0.0","87","high"
"2","safe","51","blue-20","red-53","risky","safe","1446","1","bandit-task","4","52681","0.0-3.0-0.1","87","high"
"3","safe","50","blue-44","red-158","risky","safe","2047","1","bandit-task","5","57641","0.0-3.0-0.2","87","high"
"4","risky","55","blue-211","red-209","risky","safe","1599","1","bandit-task","6","61969","0.0-3.0-0.3","87","high"
"5","risky","61","blue-213","red-12","risky","safe","1470","1","bandit-task","7","65921","0.0-3.0-0.4","87","high"
"6","risky","20","blue-13","red-200","risky","safe","1350","1","bandit-task","8","70113","0.0-3.0-0.5","87","high"
"7","risky","67","blue-51","red-46","risky","safe","1255","1","bandit-task","9","74153","0.0-3.0-0.6","87","high"
"8","risky","39","blue-129","red-9","risky","safe","2231","1","bandit-task","10","79232","0.0-3.0-0.7","87","high"
"9","risky","46","blue-14","red-116","risky","safe","1007","1","bandit-task","11","83120","0.0-3.0-0.8","87","high"
"10","safe","49","blue-3","red-174","risky","safe","2126","1","bandit-task","12","87776","0.0-3.0-0.9","87","high"
"11","risky","28","blue-45","red-48","risky","safe","3591","1","bandit-task","13","94735","0.0-3.0-0.10","87","high"
"12","safe","50","blue-98","red-19","risky","safe","2754","1","bandit-task","14","100394","0.0-3.0-0.11","87","high"
"13","safe","51","blue-83","red-202","risky","safe","1542","1","bandit-task","15","104826","0.0-3.0-0.12","87","high"
"14","risky","51","blue-59","red-80","risky","safe","1446","1","bandit-task","16","108946","0.0-3.0-0.13","87","high"
"15","risky","33","blue-106","red-195","risky","safe","1502","1","bandit-task","17","113233","0.0-3.0-0.14","87","high"
"16","risky","20","blue-63","red-89","risky","safe","1494","1","bandit-task","18","117225","0.0-3.0-0.15","87","high"
"17","risky","56","blue-22","red-27","risky","safe","1158","1","bandit-task","19","120873","0.0-3.0-0.16","87","high"
"18","risky","50","blue-100","red-164","risky","safe","1678","1","bandit-task","20","125801","0.0-3.0-0.17","87","high"
"19","safe","49","blue-26","red-210","risky","safe","1486","1","bandit-task","21","129865","0.0-3.0-0.18","87","high"
"20","risky","36","blue-144","red-66","risky","safe","1655","1","bandit-task","22","134624","0.0-3.0-0.19","87","high"
"21","risky","74","blue-4","red-157","risky","safe","1007","1","bandit-task","23","138632","0.0-3.0-0.20","87","high"
"22","risky","67","blue-140","red-154","risky","safe","2382","1","bandit-task","24","143727","0.0-3.0-0.21","87","high"
"23","safe","50","blue-150","red-184","risky","safe","1374","1","bandit-task","25","148032","0.0-3.0-0.22","87","high"
"24","risky","39","blue-115","red-64","risky","safe","966","1","bandit-task","26","151951","0.0-3.0-0.23","87","high"
"25","risky","32","blue-189","red-75","risky","safe","2215","1","bandit-task","27","157386","0.0-3.0-0.24","87","high"
"26","risky","60","blue-146","red-85","risky","safe","1142","1","bandit-task","28","161258","0.0-3.0-0.25","87","high"
"27","risky","48","blue-30","red-125","risky","safe","1438","1","bandit-task","29","165754","0.0-3.0-0.26","87","high"
"28","risky","58","blue-38","red-87","risky","safe","1094","1","bandit-task","30","169770","0.0-3.0-0.27","87","high"
"29","safe","49","blue-25","red-40","risky","safe","1382","1","bandit-task","31","174537","0.0-3.0-0.28","87","high"
"30","safe","50","blue-94","red-70","risky","safe","1359","1","bandit-task","32","178793","0.0-3.0-0.29","87","high"
"31","safe","51","blue-47","red-149","risky","safe","1926","1","bandit-task","33","183696","0.0-3.0-0.30","87","high"
"32","risky","52","blue-147","red-11","risky","safe","1255","1","bandit-task","34","187649","0.0-3.0-0.31","87","high"
"33","risky","55","blue-114","red-151","risky","safe","1462","1","bandit-task","35","192177","0.0-3.0-0.32","87","high"
"34","risky","53","blue-36","red-103","risky","safe","2342","1","bandit-task","36","197344","0.0-3.0-0.33","87","high"
"35","risky","49","blue-139","red-28","risky","safe","1167","1","bandit-task","37","201504","0.0-3.0-0.34","87","high"
"36","risky","61","blue-8","red-132","risky","safe","1222","1","bandit-task","38","205472","0.0-3.0-0.35","87","high"
"37","safe","51","blue-219","red-181","risky","safe","3294","1","bandit-task","39","211608","0.0-3.0-0.36","87","high"
"38","safe","49","blue-62","red-54","risky","safe","1167","1","bandit-task","40","215392","0.0-3.0-0.37","87","high"
"39","risky","48","blue-91","red-123","risky","safe","1303","1","bandit-task","41","219490","0.0-3.0-0.38","87","high"
"40","risky","48","blue-163","red-120","risky","safe","2215","1","bandit-task","42","224386","0.0-3.0-0.39","87","high"
"41","risky","25","blue-73","red-33","risky","safe","1087","1","bandit-task","43","227986","0.0-3.0-0.40","87","high"
"42","safe","49","blue-145","red-178","risky","safe","1542","1","bandit-task","44","232578","0.0-3.0-0.41","87","high"
"43","risky","33","blue-148","red-71","risky","safe","886","1","bandit-task","45","236441","0.0-3.0-0.42","87","high"
"44","risky","19","blue-105","red-220","risky","safe","895","1","bandit-task","46","239865","0.0-3.0-0.43","87","high"
"45","safe","50","blue-21","red-187","risky","safe","1151","1","bandit-task","47","244513","0.0-3.0-0.44","87","high"
"46","risky","48","blue-15","red-68","risky","safe","1461","1","bandit-task","48","248681","0.0-3.0-0.45","87","high"
"47","safe","50","blue-207","red-133","risky","safe","1118","1","bandit-task","49","252737","0.0-3.0-0.46","87","high"
"48","risky","82","blue-142","red-121","risky","safe","1350","1","bandit-task","50","257224","0.0-3.0-0.47","87","high"
"49","safe","51","blue-169","red-130","risky","safe","1311","1","bandit-task","51","261905","0.0-3.0-0.48","87","high"
"50","safe","50","blue-23","red-138","risky","safe","1445","1","bandit-task","52","266288","0.0-3.0-0.49","87","high"
"51","risky","17","blue-34","red-32","risky","safe","1014","1","bandit-task","53","269896","0.0-3.0-0.50","87","high"
"52","risky","30","blue-190","red-161","risky","safe","1310","1","bandit-task","54","274120","0.0-3.0-0.51","87","high"
"53","safe","49","blue-205","red-217","risky","safe","927","1","bandit-task","55","277615","0.0-3.0-0.52","87","high"
"54","safe","50","blue-201","red-196","risky","safe","1094","1","bandit-task","56","281930","0.0-3.0-0.53","87","high"
"55","safe","50","blue-188","red-1","risky","safe","1014","1","bandit-task","57","285706","0.0-3.0-0.54","87","high"
"56","safe","50","blue-79","red-171","risky","safe","1014","1","bandit-task","58","289297","0.0-3.0-0.55","87","high"
"57","risky","41","blue-192","red-67","risky","safe","1327","1","bandit-task","59","293265","0.0-3.0-0.56","87","high"
"58","risky","65","blue-168","red-212","risky","safe","1230","1","bandit-task","60","297505","0.0-3.0-0.57","87","high"
"59","risky","39","blue-183","red-198","risky","safe","1278","1","bandit-task","61","301849","0.0-3.0-0.58","87","high"
"60","safe","49","blue-218","red-182","risky","safe","1030","1","bandit-task","62","305817","0.0-3.0-0.59","87","high"
"61","safe","52","blue-112","red-122","risky","safe","1078","1","bandit-task","63","309849","0.0-3.0-0.60","87","high"
"62","risky","61","blue-215","red-194","risky","safe","1247","1","bandit-task","64","314176","0.0-3.0-0.61","87","high"
"63","safe","50","blue-167","red-52","risky","safe","1143","1","bandit-task","65","318248","0.0-3.0-0.62","87","high"
"64","risky","12","blue-49","red-24","risky","safe","934","1","bandit-task","66","322232","0.0-3.0-0.63","87","high"
"65","safe","49","blue-166","red-152","risky","safe","870","1","bandit-task","67","325608","0.0-3.0-0.64","87","high"
"66","risky","45","blue-39","red-31","risky","safe","942","1","bandit-task","68","329424","0.0-3.0-0.65","87","high"
"67","safe","51","blue-156","red-107","risky","safe","958","1","bandit-task","69","333535","0.0-3.0-0.66","87","high"
"68","risky","58","blue-102","red-55","risky","safe","1190","1","bandit-task","70","337647","0.0-3.0-0.67","87","high"
"69","safe","48","blue-69","red-216","risky","safe","950","1","bandit-task","71","341191","0.0-3.0-0.68","87","high"
"70","safe","49","blue-42","red-179","risky","safe","1137","1","bandit-task","72","345178","0.0-3.0-0.69","87","high"
"71","risky","62","blue-172","red-60","risky","safe","781","1","bandit-task","73","348642","0.0-3.0-0.70","87","high"
"72","risky","13","blue-155","red-175","risky","safe","974","1","bandit-task","74","352794","0.0-3.0-0.71","87","high"
"73","risky","34","blue-50","red-57","risky","safe","1094","1","bandit-task","75","356713","0.0-3.0-0.72","87","high"
"74","risky","32","blue-118","red-35","risky","safe","798","1","bandit-task","76","360193","0.0-3.0-0.73","87","high"
"75","risky","62","blue-137","red-173","risky","safe","959","1","bandit-task","77","364441","0.0-3.0-0.74","87","high"
"76","risky","51","blue-180","red-101","risky","safe","878","1","bandit-task","78","368106","0.0-3.0-0.75","87","high"
"77","risky","28","blue-176","red-76","risky","safe","893","1","bandit-task","79","371713","0.0-3.0-0.76","87","high"
"78","risky","70","blue-88","red-58","risky","safe","1199","1","bandit-task","80","375785","0.0-3.0-0.77","87","high"
"79","risky","14","blue-208","red-134","risky","safe","1142","1","bandit-task","81","379376","0.0-3.0-0.78","87","high"
"80","safe","50","blue-86","red-108","risky","safe","1070","1","bandit-task","82","383336","0.0-3.0-0.79","87","high"
"81","safe","50","blue-119","red-131","risky","safe","1398","1","bandit-task","83","387176","0.0-3.0-0.80","87","high"
"82","safe","50","blue-41","red-104","risky","safe","1342","1","bandit-task","84","391456","0.0-3.0-0.81","87","high"
"83","risky","67","blue-56","red-16","risky","safe","918","1","bandit-task","85","394904","0.0-3.0-0.82","87","high"
"84","risky","36","blue-127","red-110","risky","safe","798","1","bandit-task","86","398647","0.0-3.0-0.83","87","high"
"85","risky","37","blue-141","red-126","risky","safe","1246","1","bandit-task","87","402690","0.0-3.0-0.84","87","high"
"86","safe","51","blue-78","red-197","risky","safe","1318","1","bandit-task","88","406778","0.0-3.0-0.85","87","high"
"87","risky","73","blue-159","red-90","risky","safe","838","1","bandit-task","89","410282","0.0-3.0-0.86","87","high"
"88","risky","35","blue-177","red-96","risky","safe","1142","1","bandit-task","90","414362","0.0-3.0-0.87","87","high"
"89","risky","72","blue-18","red-165","risky","safe","1342","1","bandit-task","91","418873","0.0-3.0-0.88","87","high"
"90","risky","28","blue-203","red-95","risky","safe","1998","1","bandit-task","92","424209","0.0-3.0-0.89","87","high"
"91","risky","87","blue-199","red-143","risky","safe","1503","1","bandit-task","93","428345","0.0-3.0-0.90","87","high"
"92","risky","63","blue-5","red-97","risky","safe","1102","1","bandit-task","94","432481","0.0-3.0-0.91","87","high"
"93","safe","50","blue-84","red-214","risky","safe","1814","1","bandit-task","95","436729","0.0-3.0-0.92","87","high"
"94","risky","54","blue-153","red-6","risky","safe","829","1","bandit-task","96","440041","0.0-3.0-0.93","87","high"
"95","risky","71","blue-61","red-135","risky","safe","1558","1","bandit-task","97","444777","0.0-3.0-0.94","87","high"
"96","safe","49","blue-92","red-37","risky","safe","1534","1","bandit-task","98","448929","0.0-3.0-0.95","87","high"
"97","risky","10","blue-7","red-43","risky","safe","909","1","bandit-task","99","452736","0.0-3.0-0.96","87","high"
"98","safe","52","blue-65","red-193","risky","safe","918","1","bandit-task","100","456400","0.0-3.0-0.97","87","high"
"99","safe","52","blue-186","red-185","risky","safe","1926","1","bandit-task","101","461360","0.0-3.0-0.98","87","high"
"100","risky","32","blue-111","red-74","risky","safe","1305","1","bandit-task","102","465418","0.0-3.0-0.99","87","high"
"101","risky","55","blue-136","red-170","risky","safe","1078","1","bandit-task","103","469170","0.0-3.0-0.100","87","high"
"102","risky","43","blue-191","red-162","risky","safe","870","1","bandit-task","104","472994","0.0-3.0-0.101","87","high"
"103","risky","69","blue-10","red-206","risky","safe","1101","1","bandit-task","105","476921","0.0-3.0-0.102","87","high"
"104","safe","48","blue-82","red-204","risky","safe","1054","1","bandit-task","106","481041","0.0-3.0-0.103","87","high"
"105","risky","51","blue-128","red-117","risky","safe","966","1","bandit-task","107","484505","0.0-3.0-0.104","87","high"
"106","safe","50","blue-124","red-77","risky","safe","1062","1","bandit-task","108","488545","0.0-3.0-0.105","87","high"
"107","risky","90","blue-29","red-17","risky","safe","1206","1","bandit-task","109","492409","0.0-3.0-0.106","87","high"
"108","safe","50","blue-2","red-93","risky","safe","1294","1","bandit-task","110","496569","0.0-3.0-0.107","87","high"
"109","risky","37","blue-109","red-72","risky","safe","1062","1","bandit-task","111","500185","0.0-3.0-0.108","87","high"
"110","risky","20","blue-81","red-99","risky","safe","1637","1","bandit-task","112","504448","0.0-3.0-0.109","87","high"
