"trial","choice","feedback","left_stimulus","right_stimulus","left_option","right_option","rt","distribution","trial_type","trial_index","time_elapsed","internal_node_id","participant","condition"
"1","risky","52","blue-212","red-42","safe","risky","1614","6","bandit-task","3","37986","0.0-3.0-0.0","85","high"
"2","safe","50","blue-22","red-89","safe","risky","3159","6","bandit-task","4","43905","0.0-3.0-0.1","85","high"
"3","safe","50","blue-209","red-139","safe","risky","2198","6","bandit-task","5","48993","0.0-3.0-0.2","85","high"
"4","risky","67","blue-211","red-70","safe","risky","3016","6","bandit-task","6","54714","0.0-3.0-0.3","85","high"
"5","safe","49","blue-145","red-20","safe","risky","1679","6","bandit-task","7","59035","0.0-3.0-0.4","85","high"
"6","risky","87","blue-179","red-183","safe","risky","1622","6","bandit-task","8","63378","0.0-3.0-0.5","85","high"
"7","risky","58","blue-197","red-27","safe","risky","1390","6","bandit-task","9","67458","0.0-3.0-0.6","85","high"
"8","risky","66","blue-214","red-173","safe","risky","1974","6","bandit-task","10","72194","0.0-3.0-0.7","85","high"
"9","risky","51","blue-65","red-58","safe","risky","1038","6","bandit-task","11","75674","0.0-3.0-0.8","85","high"
"10","safe","50","blue-176","red-92","safe","risky","2814","6","bandit-task","12","81265","0.0-3.0-0.9","85","high"
"11","risky","42","blue-96","red-196","safe","risky","1407","6","bandit-task","13","85201","0.0-3.0-0.10","85","high"
"12","safe","51","blue-37","red-94","safe","risky","2702","6","bandit-task","14","90385","0.0-3.0-0.11","85","high"
"13","risky","78","blue-18","red-150","safe","risky","846","6","bandit-task","15","94033","0.0-3.0-0.12","85","high"
"14","safe","48","blue-121","red-1","safe","risky","1574","6","bandit-task","16","98368","0.0-3.0-0.13","85","high"
"15","risky","58","blue-12","red-52","safe","risky","1039","6","bandit-task","17","101817","0.0-3.0-0.14","85","high"
"16","risky","21","blue-162","red-19","safe","risky","1758","6","bandit-task","18","106008","0.0-3.0-0.15","85","high"
"17","safe","50","blue-98","red-188","safe","risky","1821","6","bandit-task","19","110464","0.0-3.0-0.16","85","high"
"18","risky","14","blue-5","red-200","safe","risky","2338","6","bandit-task","20","115228","0.0-3.0-0.17","85","high"
"19","risky","44","blue-151","red-158","safe","risky","2918","6","bandit-task","21","120796","0.0-3.0-0.18","85","high"
"20","safe","51","blue-135","red-30","safe","risky","1407","6","bandit-task","22","124803","0.0-3.0-0.19","85","high"
"21","safe","49","blue-93","red-117","safe","risky","1391","6","bandit-task","23","128795","0.0-3.0-0.20","85","high"
"22","risky","27","blue-31","red-155","safe","risky","2591","6","bandit-task","24","134131","0.0-3.0-0.21","85","high"
"23","safe","51","blue-77","red-124","safe","risky","1670","6","bandit-task","25","138307","0.0-3.0-0.22","85","high"
"24","risky","70","blue-164","red-146","safe","risky","1926","6","bandit-task","26","143147","0.0-3.0-0.23","85","high"
"25","risky","20","blue-43","red-147","safe","risky","951","6","bandit-task","27","146482","0.0-3.0-0.24","85","high"
"26","safe","52","blue-81","red-189","safe","risky","1143","6","bandit-task","28","150194","0.0-3.0-0.25","85","high"
"27","risky","56","blue-46","red-128","safe","risky","1414","6","bandit-task","29","154794","0.0-3.0-0.26","85","high"
"28","risky","16","blue-166","red-177","safe","risky","2174","6","bandit-task","30","159313","0.0-3.0-0.27","85","high"
"29","safe","51","blue-123","red-180","safe","risky","991","6","bandit-task","31","162906","0.0-3.0-0.28","85","high"
"30","safe","51","blue-62","red-109","safe","risky","926","6","bandit-task","32","166258","0.0-3.0-0.29","85","high"
"31","safe","49","blue-132","red-205","safe","risky","2911","6","bandit-task","33","171649","0.0-3.0-0.30","85","high"
"32","safe","50","blue-99","red-138","safe","risky","2407","6","bandit-task","34","176666","0.0-3.0-0.31","85","high"
"33","risky","55","blue-201","red-161","safe","risky","1910","6","bandit-task","35","181362","0.0-3.0-0.32","85","high"
"34","risky","38","blue-156","red-215","safe","risky","3070","6","bandit-task","36","187097","0.0-3.0-0.33","85","high"
"35","safe","51","blue-53","red-33","safe","risky","2399","6","bandit-task","37","192193","0.0-3.0-0.34","85","high"
"36","safe","49","blue-85","red-16","safe","risky","2126","6","bandit-task","38","196897","0.0-3.0-0.35","85","high"
"37","safe","51","blue-41","red-187","safe","risky","2022","6","bandit-task","39","201505","0.0-3.0-0.36","85","high"
"38","risky","37","blue-143","red-125","safe","risky","1686","6","bandit-task","40","205904","0.0-3.0-0.37","85","high"
"39","safe","49","blue-167","red-218","safe","risky","1695","6","bandit-task","41","210272","0.0-3.0-0.38","85","high"
"40","safe","50","blue-83","red-127","safe","risky","2255","6","bandit-task","42","215336","0.0-3.0-0.39","85","high"
"41","safe","50","blue-2","red-90","safe","risky","1670","6","bandit-task","43","219536","0.0-3.0-0.40","85","high"
"42","risky","28","blue-73","red-160","safe","risky","1134","6","bandit-task","44","223367","0.0-3.0-0.41","85","high"
"43","safe","49","blue-67","red-87","safe","risky","1351","6","bandit-task","45","227160","0.0-3.0-0.42","85","high"
"44","risky","64","blue-175","red-112","safe","risky","2046","6","bandit-task","46","231607","0.0-3.0-0.43","85","high"
"45","safe","52","blue-29","red-104","safe","risky","1206","6","bandit-task","47","235224","0.0-3.0-0.44","85","high"
"46","safe","51","blue-204","red-198","safe","risky","1350","6","bandit-task","48","239008","0.0-3.0-0.45","85","high"
"47","safe","49","blue-24","red-207","safe","risky","2694","6","bandit-task","49","244303","0.0-3.0-0.46","85","high"
"48","safe","48","blue-25","red-60","safe","risky","3006","6","bandit-task","50","249999","0.0-3.0-0.47","85","high"
"49","safe","52","blue-79","red-108","safe","risky","1766","6","bandit-task","51","254207","0.0-3.0-0.48","85","high"
"50","safe","53","blue-82","red-11","safe","risky","1294","6","bandit-task","52","257958","0.0-3.0-0.49","85","high"
"51","safe","49","blue-154","red-140","safe","risky","1478","6","bandit-task","53","261862","0.0-3.0-0.50","85","high"
"52","risky","27","blue-168","red-191","safe","risky","1071","6","bandit-task","54","265710","0.0-3.0-0.51","85","high"
"53","safe","51","blue-17","red-44","safe","risky","1078","6","bandit-task","55","269262","0.0-3.0-0.52","85","high"
"54","safe","50","blue-149","red-134","safe","risky","926","6","bandit-task","56","272654","0.0-3.0-0.53","85","high"
"55","safe","50","blue-148","red-35","safe","risky","822","6","bandit-task","57","275886","0.0-3.0-0.54","85","high"
"56","safe","49","blue-64","red-216","safe","risky","1446","6","bandit-task","58","279781","0.0-3.0-0.55","85","high"
"57","safe","49","blue-169","red-190","safe","risky","1479","6","bandit-task","59","283661","0.0-3.0-0.56","85","high"
"58","risky","85","blue-78","red-195","safe","risky","2677","6","bandit-task","60","288861","0.0-3.0-0.57","85","high"
"59","safe","50","blue-219","red-116","safe","risky","1990","6","bandit-task","61","293613","0.0-3.0-0.58","85","high"
"60","safe","51","blue-130","red-49","safe","risky","1556","6","bandit-task","62","297746","0.0-3.0-0.59","85","high"
"61","safe","49","blue-113","red-213","safe","risky","1599","6","bandit-task","63","301794","0.0-3.0-0.60","85","high"
"62","safe","50","blue-95","red-74","safe","risky","1415","6","bandit-task","64","305818","0.0-3.0-0.61","85","high"
"63","safe","49","blue-59","red-103","safe","risky","2006","6","bandit-task","65","310298","0.0-3.0-0.62","85","high"
"64","safe","49","blue-194","red-119","safe","risky","2342","6","bandit-task","66","315370","0.0-3.0-0.63","85","high"
"65","risky","70","blue-126","red-184","safe","risky","1494","6","bandit-task","67","319313","0.0-3.0-0.64","85","high"
"66","safe","51","blue-4","red-182","safe","risky","1279","6","bandit-task","68","323041","0.0-3.0-0.65","85","high"
"67","safe","50","blue-75","red-84","safe","risky","974","6","bandit-task","69","326521","0.0-3.0-0.66","85","high"
"68","safe","51","blue-54","red-217","safe","risky","1198","6","bandit-task","70","330209","0.0-3.0-0.67","85","high"
"69","safe","50","blue-57","red-15","safe","risky","2926","6","bandit-task","71","335537","0.0-3.0-0.68","85","high"
"70","safe","51","blue-50","red-13","safe","risky","2278","6","bandit-task","72","340209","0.0-3.0-0.69","85","high"
"71","safe","49","blue-181","red-38","safe","risky","1157","6","bandit-task","73","343896","0.0-3.0-0.70","85","high"
"72","safe","50","blue-165","red-68","safe","risky","2158","6","bandit-task","74","348488","0.0-3.0-0.71","85","high"
"73","risky","55","blue-32","red-170","safe","risky","2286","6","bandit-task","75","353463","0.0-3.0-0.72","85","high"
"74","safe","51","blue-51","red-63","safe","risky","1873","6","bandit-task","76","357762","0.0-3.0-0.73","85","high"
"75","risky","17","blue-102","red-136","safe","risky","598","6","bandit-task","77","360802","0.0-3.0-0.74","85","high"
"76","safe","50","blue-48","red-28","safe","risky","734","6","bandit-task","78","364282","0.0-3.0-0.75","85","high"
"77","safe","50","blue-91","red-118","safe","risky","782","6","bandit-task","79","367514","0.0-3.0-0.76","85","high"
"78","risky","33","blue-107","red-141","safe","risky","670","6","bandit-task","80","370658","0.0-3.0-0.77","85","high"
"79","safe","48","blue-56","red-55","safe","risky","566","6","bandit-task","81","374105","0.0-3.0-0.78","85","high"
"80","safe","50","blue-174","red-40","safe","risky","1742","6","bandit-task","82","378241","0.0-3.0-0.79","85","high"
"81","safe","51","blue-114","red-115","safe","risky","1694","6","bandit-task","83","382713","0.0-3.0-0.80","85","high"
"82","safe","51","blue-157","red-80","safe","risky","2518","6","bandit-task","84","387833","0.0-3.0-0.81","85","high"
"83","safe","51","blue-36","red-47","safe","risky","726","6","bandit-task","85","391064","0.0-3.0-0.82","85","high"
"84","risky","56","blue-14","red-220","safe","risky","942","6","bandit-task","86","394489","0.0-3.0-0.83","85","high"
"85","safe","49","blue-172","red-8","safe","risky","3118","6","bandit-task","87","400048","0.0-3.0-0.84","85","high"
"86","safe","51","blue-23","red-72","safe","risky","1127","6","bandit-task","88","403616","0.0-3.0-0.85","85","high"
"87","safe","49","blue-131","red-144","safe","risky","1117","6","bandit-task","89","407200","0.0-3.0-0.86","85","high"
"88","risky","79","blue-7","red-163","safe","risky","1222","6","bandit-task","90","410895","0.0-3.0-0.87","85","high"
"89","safe","51","blue-129","red-185","safe","risky","1486","6","bandit-task","91","414815","0.0-3.0-0.88","85","high"
"90","risky","42","blue-34","red-26","safe","risky","1582","6","bandit-task","92","419063","0.0-3.0-0.89","85","high"
"91","safe","49","blue-21","red-69","safe","risky","2262","6","bandit-task","93","423887","0.0-3.0-0.90","85","high"
"92","safe","50","blue-153","red-203","safe","risky","1765","6","bandit-task","94","428047","0.0-3.0-0.91","85","high"
"93","risky","37","blue-186","red-97","safe","risky","1470","6","bandit-task","95","431951","0.0-3.0-0.92","85","high"
"94","risky","27","blue-9","red-192","safe","risky","1462","6","bandit-task","96","436263","0.0-3.0-0.93","85","high"
"95","safe","48","blue-171","red-45","safe","risky","1526","6","bandit-task","97","440198","0.0-3.0-0.94","85","high"
"96","safe","50","blue-199","red-71","safe","risky","1141","6","bandit-task","98","443758","0.0-3.0-0.95","85","high"
"97","safe","49","blue-105","red-3","safe","risky","533","6","bandit-task","99","446710","0.0-3.0-0.96","85","high"
"98","safe","51","blue-210","red-100","safe","risky","494","6","bandit-task","100","449646","0.0-3.0-0.97","85","high"
"99","risky","64","blue-86","red-6","safe","risky","1206","6","bandit-task","101","453318","0.0-3.0-0.98","85","high"
"100","risky","60","blue-61","red-39","safe","risky","1030","6","bandit-task","102","457565","0.0-3.0-0.99","85","high"
"101","safe","52","blue-133","red-152","safe","risky","838","6","bandit-task","103","460813","0.0-3.0-0.100","85","high"
"102","risky","56","blue-76","red-10","safe","risky","1509","6","bandit-task","104","464717","0.0-3.0-0.101","85","high"
"103","risky","38","blue-137","red-106","safe","risky","1854","6","bandit-task","105","468989","0.0-3.0-0.102","85","high"
"104","safe","51","blue-101","red-206","safe","risky","1157","6","bandit-task","106","472597","0.0-3.0-0.103","85","high"
"105","safe","49","blue-142","red-122","safe","risky","854","6","bandit-task","107","475869","0.0-3.0-0.104","85","high"
"106","safe","50","blue-66","red-111","safe","risky","583","6","bandit-task","108","478854","0.0-3.0-0.105","85","high"
"107","safe","51","blue-178","red-110","safe","risky","438","6","bandit-task","109","481701","0.0-3.0-0.106","85","high"
"108","safe","49","blue-120","red-208","safe","risky","902","6","bandit-task","110","485022","0.0-3.0-0.107","85","high"
"109","safe","51","blue-202","red-159","safe","risky","534","6","bandit-task","111","488005","0.0-3.0-0.108","85","high"
"110","safe","49","blue-193","red-88","safe","risky","918","6","bandit-task","112","491365","0.0-3.0-0.109","85","high"
