"trial","choice","feedback","left_stimulus","right_stimulus","left_option","right_option","rt","distribution","trial_type","trial_index","time_elapsed","internal_node_id","participant","condition"
"1","risky","52","red-218","blue-35","risky","safe","5805","6","bandit-task","3","60754","0.0-3.0-0.0","7","high"
"2","safe","50","red-117","blue-145","risky","safe","2766","6","bandit-task","4","66825","0.0-3.0-0.1","7","high"
"3","risky","67","red-149","blue-89","risky","safe","2471","6","bandit-task","5","72681","0.0-3.0-0.2","7","high"
"4","risky","87","red-157","blue-178","risky","safe","3462","6","bandit-task","6","79529","0.0-3.0-0.3","7","high"
"5","safe","50","red-44","blue-122","risky","safe","3470","6","bandit-task","7","85904","0.0-3.0-0.4","7","high"
"6","safe","49","red-184","blue-215","risky","safe","2991","6","bandit-task","8","91576","0.0-3.0-0.5","7","high"
"7","safe","50","red-40","blue-177","risky","safe","3702","6","bandit-task","9","98056","0.0-3.0-0.6","7","high"
"8","risky","58","red-20","blue-71","risky","safe","1966","6","bandit-task","10","102848","0.0-3.0-0.7","7","high"
"9","risky","66","red-159","blue-67","risky","safe","2894","6","bandit-task","11","108872","0.0-3.0-0.8","7","high"
"10","safe","51","red-165","blue-209","risky","safe","2207","6","bandit-task","12","113663","0.0-3.0-0.9","7","high"
"11","risky","51","red-154","blue-80","risky","safe","975","6","bandit-task","13","118143","0.0-3.0-0.10","7","high"
"12","safe","48","red-102","blue-96","risky","safe","3624","6","bandit-task","14","124408","0.0-3.0-0.11","7","high"
"13","risky","42","red-3","blue-36","risky","safe","4158","6","bandit-task","15","131256","0.0-3.0-0.12","7","high"
"14","risky","78","red-12","blue-195","risky","safe","1999","6","bandit-task","16","135839","0.0-3.0-0.13","7","high"
"15","safe","50","red-79","blue-63","risky","safe","1373","6","bandit-task","17","139944","0.0-3.0-0.14","7","high"
"16","safe","51","red-97","blue-179","risky","safe","3719","6","bandit-task","18","146695","0.0-3.0-0.15","7","high"
"17","safe","49","red-11","blue-25","risky","safe","1886","6","bandit-task","19","151231","0.0-3.0-0.16","7","high"
"18","risky","58","red-192","blue-191","risky","safe","1190","6","bandit-task","20","154991","0.0-3.0-0.17","7","high"
"19","safe","51","red-123","blue-126","risky","safe","4166","6","bandit-task","21","161751","0.0-3.0-0.18","7","high"
"20","risky","21","red-60","blue-2","risky","safe","862","6","bandit-task","22","165238","0.0-3.0-0.19","7","high"
"21","safe","52","red-66","blue-22","risky","safe","1383","6","bandit-task","23","169110","0.0-3.0-0.20","7","high"
"22","safe","51","red-98","blue-109","risky","safe","1534","6","bandit-task","24","173502","0.0-3.0-0.21","7","high"
"23","risky","14","red-62","blue-87","risky","safe","2198","6","bandit-task","25","178870","0.0-3.0-0.22","7","high"
"24","risky","44","red-163","blue-17","risky","safe","1759","6","bandit-task","26","183305","0.0-3.0-0.23","7","high"
"25","risky","27","red-24","blue-140","risky","safe","1286","6","bandit-task","27","187489","0.0-3.0-0.24","7","high"
"26","safe","51","red-77","blue-15","risky","safe","1374","6","bandit-task","28","191601","0.0-3.0-0.25","7","high"
"27","risky","70","red-110","blue-74","risky","safe","1031","6","bandit-task","29","195257","0.0-3.0-0.26","7","high"
"28","safe","49","red-220","blue-101","risky","safe","2511","6","bandit-task","30","200264","0.0-3.0-0.27","7","high"
"29","risky","20","red-50","blue-188","risky","safe","967","6","bandit-task","31","203920","0.0-3.0-0.28","7","high"
"30","safe","50","red-41","blue-73","risky","safe","4950","6","bandit-task","32","211592","0.0-3.0-0.29","7","high"
"31","safe","51","red-8","blue-146","risky","safe","1205","6","bandit-task","33","215320","0.0-3.0-0.30","7","high"
"32","safe","49","red-33","blue-172","risky","safe","1694","6","bandit-task","34","219495","0.0-3.0-0.31","7","high"
"33","safe","51","red-138","blue-201","risky","safe","975","6","bandit-task","35","223175","0.0-3.0-0.32","7","high"
"34","safe","49","red-194","blue-162","risky","safe","1631","6","bandit-task","36","227335","0.0-3.0-0.33","7","high"
"35","risky","56","red-206","blue-196","risky","safe","838","6","bandit-task","37","230559","0.0-3.0-0.34","7","high"
"36","safe","50","red-137","blue-49","risky","safe","1286","6","bandit-task","38","234703","0.0-3.0-0.35","7","high"
"37","safe","50","red-132","blue-26","risky","safe","1615","6","bandit-task","39","239134","0.0-3.0-0.36","7","high"
"38","risky","16","red-142","blue-75","risky","safe","967","6","bandit-task","40","242807","0.0-3.0-0.37","7","high"
"39","risky","55","red-203","blue-135","risky","safe","3991","6","bandit-task","41","249495","0.0-3.0-0.38","7","high"
"40","safe","49","red-176","blue-9","risky","safe","1159","6","bandit-task","42","253166","0.0-3.0-0.39","7","high"
"41","risky","38","red-217","blue-187","risky","safe","3495","6","bandit-task","43","259214","0.0-3.0-0.40","7","high"
"42","safe","52","red-129","blue-68","risky","safe","1238","6","bandit-task","44","263318","0.0-3.0-0.41","7","high"
"43","risky","37","red-84","blue-185","risky","safe","1782","6","bandit-task","45","267774","0.0-3.0-0.42","7","high"
"44","safe","51","red-175","blue-72","risky","safe","869","6","bandit-task","46","271198","0.0-3.0-0.43","7","high"
"45","safe","49","red-103","blue-200","risky","safe","783","6","bandit-task","47","274565","0.0-3.0-0.44","7","high"
"46","safe","48","red-6","blue-58","risky","safe","1318","6","bandit-task","48","278277","0.0-3.0-0.45","7","high"
"47","risky","28","red-111","blue-211","risky","safe","1342","6","bandit-task","49","282093","0.0-3.0-0.46","7","high"
"48","risky","64","red-64","blue-91","risky","safe","1030","6","bandit-task","50","285669","0.0-3.0-0.47","7","high"
"49","safe","52","red-121","blue-52","risky","safe","1485","6","bandit-task","51","289749","0.0-3.0-0.48","7","high"
"50","safe","53","red-31","blue-69","risky","safe","1502","6","bandit-task","52","293893","0.0-3.0-0.49","7","high"
"51","safe","49","red-34","blue-78","risky","safe","1582","6","bandit-task","53","298020","0.0-3.0-0.50","7","high"
"52","safe","51","red-144","blue-19","risky","safe","1423","6","bandit-task","54","302132","0.0-3.0-0.51","7","high"
"53","safe","50","red-125","blue-153","risky","safe","1206","6","bandit-task","55","306012","0.0-3.0-0.52","7","high"
"54","risky","27","red-10","blue-65","risky","safe","2360","6","bandit-task","56","311295","0.0-3.0-0.53","7","high"
"55","safe","50","red-92","blue-100","risky","safe","1446","6","bandit-task","57","315247","0.0-3.0-0.54","7","high"
"56","safe","49","red-118","blue-147","risky","safe","806","6","bandit-task","58","318414","0.0-3.0-0.55","7","high"
"57","safe","49","red-199","blue-61","risky","safe","1063","6","bandit-task","59","322030","0.0-3.0-0.56","7","high"
"58","safe","50","red-112","blue-1","risky","safe","2014","6","bandit-task","60","326406","0.0-3.0-0.57","7","high"
"59","safe","51","red-105","blue-174","risky","safe","1238","6","bandit-task","61","330158","0.0-3.0-0.58","7","high"
"60","risky","85","red-56","blue-164","risky","safe","1550","6","bandit-task","62","334269","0.0-3.0-0.59","7","high"
"61","safe","49","red-47","blue-37","risky","safe","1902","6","bandit-task","63","338598","0.0-3.0-0.60","7","high"
"62","risky","70","red-210","blue-119","risky","safe","1535","6","bandit-task","64","342789","0.0-3.0-0.61","7","high"
"63","risky","55","red-148","blue-88","risky","safe","1222","6","bandit-task","65","346461","0.0-3.0-0.62","7","high"
"64","safe","50","red-134","blue-104","risky","safe","1870","6","bandit-task","66","350941","0.0-3.0-0.63","7","high"
"65","risky","17","red-133","blue-59","risky","safe","2510","6","bandit-task","67","355861","0.0-3.0-0.64","7","high"
"66","safe","49","red-81","blue-128","risky","safe","1407","6","bandit-task","68","359620","0.0-3.0-0.65","7","high"
"67","safe","49","red-106","blue-116","risky","safe","1447","6","bandit-task","69","363460","0.0-3.0-0.66","7","high"
"68","safe","51","red-115","blue-216","risky","safe","862","6","bandit-task","70","366732","0.0-3.0-0.67","7","high"
"69","risky","33","red-219","blue-127","risky","safe","1046","6","bandit-task","71","370545","0.0-3.0-0.68","7","high"
"70","safe","50","red-51","blue-5","risky","safe","2446","6","bandit-task","72","375481","0.0-3.0-0.69","7","high"
"71","safe","51","red-189","blue-182","risky","safe","3982","6","bandit-task","73","382000","0.0-3.0-0.70","7","high"
"72","safe","50","red-167","blue-202","risky","safe","719","6","bandit-task","74","385056","0.0-3.0-0.71","7","high"
"73","risky","56","red-21","blue-82","risky","safe","951","6","bandit-task","75","388473","0.0-3.0-0.72","7","high"
"74","risky","79","red-190","blue-55","risky","safe","1949","6","bandit-task","76","393008","0.0-3.0-0.73","7","high"
"75","safe","51","red-158","blue-86","risky","safe","1406","6","bandit-task","77","396880","0.0-3.0-0.74","7","high"
"76","safe","49","red-131","blue-48","risky","safe","2894","6","bandit-task","78","402656","0.0-3.0-0.75","7","high"
"77","safe","50","red-141","blue-130","risky","safe","1454","6","bandit-task","79","406511","0.0-3.0-0.76","7","high"
"78","safe","51","red-160","blue-205","risky","safe","591","6","bandit-task","80","409463","0.0-3.0-0.77","7","high"
"79","safe","50","red-94","blue-54","risky","safe","1351","6","bandit-task","81","413159","0.0-3.0-0.78","7","high"
"80","safe","50","red-204","blue-113","risky","safe","838","6","bandit-task","82","416527","0.0-3.0-0.79","7","high"
"81","safe","48","red-169","blue-114","risky","safe","1022","6","bandit-task","83","420191","0.0-3.0-0.80","7","high"
"82","safe","50","red-70","blue-197","risky","safe","1414","6","bandit-task","84","424023","0.0-3.0-0.81","7","high"
"83","risky","42","red-18","blue-23","risky","safe","1902","6","bandit-task","85","428390","0.0-3.0-0.82","7","high"
"84","safe","51","red-38","blue-108","risky","safe","935","6","bandit-task","86","431841","0.0-3.0-0.83","7","high"
"85","risky","37","red-170","blue-183","risky","safe","1222","6","bandit-task","87","435681","0.0-3.0-0.84","7","high"
"86","safe","51","red-171","blue-57","risky","safe","838","6","bandit-task","88","438880","0.0-3.0-0.85","7","high"
"87","safe","51","red-4","blue-53","risky","safe","1151","6","bandit-task","89","442921","0.0-3.0-0.86","7","high"
"88","safe","49","red-93","blue-213","risky","safe","750","6","bandit-task","90","446152","0.0-3.0-0.87","7","high"
"89","safe","51","red-30","blue-166","risky","safe","1086","6","bandit-task","91","449592","0.0-3.0-0.88","7","high"
"90","safe","49","red-152","blue-13","risky","safe","926","6","bandit-task","92","452920","0.0-3.0-0.89","7","high"
"91","safe","51","red-42","blue-32","risky","safe","1070","6","bandit-task","93","456376","0.0-3.0-0.90","7","high"
"92","risky","27","red-212","blue-43","risky","safe","774","6","bandit-task","94","459656","0.0-3.0-0.91","7","high"
"93","risky","64","red-150","blue-29","risky","safe","998","6","bandit-task","95","463000","0.0-3.0-0.92","7","high"
"94","risky","60","red-151","blue-28","risky","safe","2318","6","bandit-task","96","467735","0.0-3.0-0.93","7","high"
"95","safe","49","red-186","blue-180","risky","safe","1143","6","bandit-task","97","471583","0.0-3.0-0.94","7","high"
"96","safe","50","red-14","blue-16","risky","safe","646","6","bandit-task","98","474623","0.0-3.0-0.95","7","high"
"97","risky","56","red-173","blue-39","risky","safe","950","6","bandit-task","99","478671","0.0-3.0-0.96","7","high"
"98","safe","48","red-27","blue-83","risky","safe","806","6","bandit-task","100","482222","0.0-3.0-0.97","7","high"
"99","safe","50","red-156","blue-181","risky","safe","958","6","bandit-task","101","485775","0.0-3.0-0.98","7","high"
"100","safe","49","red-107","blue-76","risky","safe","2358","6","bandit-task","102","490758","0.0-3.0-0.99","7","high"
"101","safe","51","red-155","blue-193","risky","safe","966","6","bandit-task","103","494105","0.0-3.0-0.100","7","high"
"102","safe","52","red-124","blue-95","risky","safe","758","6","bandit-task","104","497385","0.0-3.0-0.101","7","high"
"103","safe","51","red-139","blue-120","risky","safe","822","6","bandit-task","105","500577","0.0-3.0-0.102","7","high"
"104","safe","49","red-143","blue-168","risky","safe","646","6","bandit-task","106","503585","0.0-3.0-0.103","7","high"
"105","safe","50","red-45","blue-46","risky","safe","1118","6","bandit-task","107","507185","0.0-3.0-0.104","7","high"
"106","risky","38","red-207","blue-7","risky","safe","846","6","bandit-task","108","510697","0.0-3.0-0.105","7","high"
"107","risky","32","red-90","blue-99","risky","safe","974","6","bandit-task","109","514273","0.0-3.0-0.106","7","high"
"108","risky","58","red-208","blue-136","risky","safe","798","6","bandit-task","110","517616","0.0-3.0-0.107","7","high"
"109","safe","51","red-85","blue-161","risky","safe","486","6","bandit-task","111","520600","0.0-3.0-0.108","7","high"
"110","risky","45","red-198","blue-214","risky","safe","1327","6","bandit-task","112","524608","0.0-3.0-0.109","7","high"
