"trial","choice","feedback","left_stimulus","right_stimulus","left_option","right_option","rt","distribution","trial_type","trial_index","time_elapsed","internal_node_id","participant","condition"
"1","risky","79","blue-98","red-188","safe","risky","2437","8","bandit-task","3","38509","0.0-3.0-0.0","17","high"
"2","safe","51","blue-127","red-69","safe","risky","1886","8","bandit-task","4","43915","0.0-3.0-0.1","17","high"
"3","risky","46","blue-197","red-117","safe","risky","2478","8","bandit-task","5","49155","0.0-3.0-0.2","17","high"
"4","safe","50","blue-14","red-91","safe","risky","1142","8","bandit-task","6","53011","0.0-3.0-0.3","17","high"
"5","risky","44","blue-77","red-81","safe","risky","878","8","bandit-task","7","56523","0.0-3.0-0.4","17","high"
"6","safe","51","blue-208","red-33","safe","risky","1335","8","bandit-task","8","60467","0.0-3.0-0.5","17","high"
"7","safe","49","blue-99","red-95","safe","risky","1183","8","bandit-task","9","64394","0.0-3.0-0.6","17","high"
"8","risky","67","blue-15","red-13","safe","risky","751","8","bandit-task","10","67634","0.0-3.0-0.7","17","high"
"9","risky","14","blue-206","red-119","safe","risky","1006","8","bandit-task","11","71282","0.0-3.0-0.8","17","high"
"10","safe","49","blue-27","red-215","safe","risky","1030","8","bandit-task","12","74922","0.0-3.0-0.9","17","high"
"11","safe","49","blue-66","red-210","safe","risky","926","8","bandit-task","13","78442","0.0-3.0-0.10","17","high"
"12","risky","50","blue-166","red-218","safe","risky","750","8","bandit-task","14","81714","0.0-3.0-0.11","17","high"
"13","risky","45","blue-118","red-135","safe","risky","1063","8","bandit-task","15","85321","0.0-3.0-0.12","17","high"
"14","safe","48","blue-180","red-202","safe","risky","910","8","bandit-task","16","88897","0.0-3.0-0.13","17","high"
"15","risky","37","blue-17","red-191","safe","risky","822","8","bandit-task","17","92265","0.0-3.0-0.14","17","high"
"16","safe","50","blue-22","red-58","safe","risky","902","8","bandit-task","18","95737","0.0-3.0-0.15","17","high"
"17","safe","49","blue-36","red-212","safe","risky","799","8","bandit-task","19","99104","0.0-3.0-0.16","17","high"
"18","risky","40","blue-64","red-100","safe","risky","647","8","bandit-task","20","102400","0.0-3.0-0.17","17","high"
"19","safe","51","blue-49","red-139","safe","risky","871","8","bandit-task","21","106080","0.0-3.0-0.18","17","high"
"20","risky","37","blue-128","red-11","safe","risky","903","8","bandit-task","22","109880","0.0-3.0-0.19","17","high"
"21","risky","48","blue-55","red-108","safe","risky","863","8","bandit-task","23","113224","0.0-3.0-0.20","17","high"
"22","safe","51","blue-83","red-142","safe","risky","942","8","bandit-task","24","116776","0.0-3.0-0.21","17","high"
"23","risky","66","blue-73","red-80","safe","risky","1614","8","bandit-task","25","121064","0.0-3.0-0.22","17","high"
"24","safe","51","blue-173","red-19","safe","risky","1222","8","bandit-task","26","124960","0.0-3.0-0.23","17","high"
"25","risky","28","blue-152","red-112","safe","risky","1087","8","bandit-task","27","128511","0.0-3.0-0.24","17","high"
"26","risky","85","blue-199","red-169","safe","risky","1447","8","bandit-task","28","132623","0.0-3.0-0.25","17","high"
"27","risky","69","blue-182","red-41","safe","risky","1534","8","bandit-task","29","136655","0.0-3.0-0.26","17","high"
"28","safe","53","blue-38","red-163","safe","risky","959","8","bandit-task","30","140199","0.0-3.0-0.27","17","high"
"29","safe","50","blue-32","red-205","safe","risky","1406","8","bandit-task","31","144207","0.0-3.0-0.28","17","high"
"30","risky","32","blue-155","red-175","safe","risky","1246","8","bandit-task","32","148055","0.0-3.0-0.29","17","high"
"31","risky","38","blue-7","red-56","safe","risky","1591","8","bandit-task","33","152175","0.0-3.0-0.30","17","high"
"32","safe","52","blue-145","red-200","safe","risky","1014","8","bandit-task","34","155639","0.0-3.0-0.31","17","high"
"33","safe","50","blue-31","red-21","safe","risky","2039","8","bandit-task","35","160526","0.0-3.0-0.32","17","high"
"34","safe","51","blue-74","red-4","safe","risky","1159","8","bandit-task","36","164446","0.0-3.0-0.33","17","high"
"35","risky","74","blue-144","red-125","safe","risky","1006","8","bandit-task","37","167993","0.0-3.0-0.34","17","high"
"36","safe","49","blue-183","red-70","safe","risky","1542","8","bandit-task","38","172272","0.0-3.0-0.35","17","high"
"37","risky","53","blue-204","red-107","safe","risky","1199","8","bandit-task","39","176024","0.0-3.0-0.36","17","high"
"38","safe","48","blue-213","red-151","safe","risky","1519","8","bandit-task","40","180096","0.0-3.0-0.37","17","high"
"39","risky","50","blue-184","red-47","safe","risky","1015","8","bandit-task","41","183600","0.0-3.0-0.38","17","high"
"40","safe","50","blue-164","red-178","safe","risky","870","8","bandit-task","42","187064","0.0-3.0-0.39","17","high"
"41","safe","49","blue-71","red-176","safe","risky","1286","8","bandit-task","43","190808","0.0-3.0-0.40","17","high"
"42","risky","82","blue-149","red-85","safe","risky","918","8","bandit-task","44","194327","0.0-3.0-0.41","17","high"
"43","safe","48","blue-198","red-137","safe","risky","1598","8","bandit-task","45","198623","0.0-3.0-0.42","17","high"
"44","risky","55","blue-44","red-84","safe","risky","855","8","bandit-task","46","201959","0.0-3.0-0.43","17","high"
"45","safe","47","blue-35","red-115","safe","risky","1327","8","bandit-task","47","205727","0.0-3.0-0.44","17","high"
"46","risky","48","blue-131","red-171","safe","risky","1453","8","bandit-task","48","209663","0.0-3.0-0.45","17","high"
"47","safe","51","blue-78","red-61","safe","risky","1214","8","bandit-task","49","214231","0.0-3.0-0.46","17","high"
"48","risky","46","blue-54","red-161","safe","risky","942","8","bandit-task","50","217727","0.0-3.0-0.47","17","high"
"49","safe","49","blue-132","red-106","safe","risky","910","8","bandit-task","51","221095","0.0-3.0-0.48","17","high"
"50","risky","28","blue-120","red-43","safe","risky","967","8","bandit-task","52","224502","0.0-3.0-0.49","17","high"
"51","safe","50","blue-8","red-190","safe","risky","966","8","bandit-task","53","227954","0.0-3.0-0.50","17","high"
"52","safe","51","blue-154","red-87","safe","risky","959","8","bandit-task","54","231394","0.0-3.0-0.51","17","high"
"53","safe","51","blue-39","red-75","safe","risky","1030","8","bandit-task","55","234977","0.0-3.0-0.52","17","high"
"54","safe","51","blue-102","red-121","safe","risky","926","8","bandit-task","56","238346","0.0-3.0-0.53","17","high"
"55","safe","49","blue-129","red-160","safe","risky","999","8","bandit-task","57","241793","0.0-3.0-0.54","17","high"
"56","risky","67","blue-177","red-104","safe","risky","959","8","bandit-task","58","245353","0.0-3.0-0.55","17","high"
"57","safe","50","blue-143","red-185","safe","risky","1390","8","bandit-task","59","249337","0.0-3.0-0.56","17","high"
"58","safe","50","blue-93","red-2","safe","risky","902","8","bandit-task","60","252833","0.0-3.0-0.57","17","high"
"59","risky","31","blue-162","red-211","safe","risky","1470","8","bandit-task","61","256720","0.0-3.0-0.58","17","high"
"60","safe","51","blue-29","red-130","safe","risky","871","8","bandit-task","62","260209","0.0-3.0-0.59","17","high"
"61","safe","51","blue-5","red-186","safe","risky","1086","8","bandit-task","63","263736","0.0-3.0-0.60","17","high"
"62","risky","85","blue-220","red-24","safe","risky","927","8","bandit-task","64","267152","0.0-3.0-0.61","17","high"
"63","safe","51","blue-105","red-16","safe","risky","806","8","bandit-task","65","270448","0.0-3.0-0.62","17","high"
"64","safe","49","blue-111","red-51","safe","risky","1534","8","bandit-task","66","274544","0.0-3.0-0.63","17","high"
"65","safe","49","blue-97","red-48","safe","risky","1318","8","bandit-task","67","278328","0.0-3.0-0.64","17","high"
"66","risky","39","blue-10","red-126","safe","risky","1030","8","bandit-task","68","281792","0.0-3.0-0.65","17","high"
"67","risky","60","blue-189","red-23","safe","risky","2390","8","bandit-task","69","286823","0.0-3.0-0.66","17","high"
"68","risky","26","blue-165","red-217","safe","risky","879","8","bandit-task","70","290120","0.0-3.0-0.67","17","high"
"69","safe","50","blue-196","red-146","safe","risky","990","8","bandit-task","71","293736","0.0-3.0-0.68","17","high"
"70","safe","50","blue-26","red-12","safe","risky","878","8","bandit-task","72","297319","0.0-3.0-0.69","17","high"
"71","safe","51","blue-209","red-192","safe","risky","911","8","bandit-task","73","300688","0.0-3.0-0.70","17","high"
"72","safe","49","blue-116","red-114","safe","risky","1574","8","bandit-task","74","304687","0.0-3.0-0.71","17","high"
"73","risky","35","blue-150","red-110","safe","risky","854","8","bandit-task","75","308007","0.0-3.0-0.72","17","high"
"74","safe","48","blue-82","red-216","safe","risky","751","8","bandit-task","76","311375","0.0-3.0-0.73","17","high"
"75","safe","49","blue-72","red-181","safe","risky","1022","8","bandit-task","77","314807","0.0-3.0-0.74","17","high"
"76","safe","49","blue-50","red-62","safe","risky","1397","8","bandit-task","78","318631","0.0-3.0-0.75","17","high"
"77","risky","59","blue-214","red-90","safe","risky","926","8","bandit-task","79","322159","0.0-3.0-0.76","17","high"
"78","safe","50","blue-123","red-3","safe","risky","2038","8","bandit-task","80","326622","0.0-3.0-0.77","17","high"
"79","risky","18","blue-136","red-147","safe","risky","902","8","bandit-task","81","329966","0.0-3.0-0.78","17","high"
"80","safe","49","blue-134","red-156","safe","risky","846","8","bandit-task","82","333318","0.0-3.0-0.79","17","high"
"81","safe","49","blue-79","red-94","safe","risky","1030","8","bandit-task","83","336782","0.0-3.0-0.80","17","high"
"82","safe","52","blue-193","red-88","safe","risky","934","8","bandit-task","84","340229","0.0-3.0-0.81","17","high"
"83","risky","71","blue-34","red-28","safe","risky","942","8","bandit-task","85","343614","0.0-3.0-0.82","17","high"
"84","safe","50","blue-187","red-46","safe","risky","1214","8","bandit-task","86","347229","0.0-3.0-0.83","17","high"
"85","risky","42","blue-18","red-124","safe","risky","1663","8","bandit-task","87","351496","0.0-3.0-0.84","17","high"
"86","risky","66","blue-6","red-179","safe","risky","990","8","bandit-task","88","355119","0.0-3.0-0.85","17","high"
"87","risky","60","blue-174","red-159","safe","risky","823","8","bandit-task","89","358399","0.0-3.0-0.86","17","high"
"88","risky","44","blue-20","red-201","safe","risky","1502","8","bandit-task","90","362415","0.0-3.0-0.87","17","high"
"89","safe","49","blue-59","red-30","safe","risky","1078","8","bandit-task","91","365943","0.0-3.0-0.88","17","high"
"90","risky","42","blue-63","red-42","safe","risky","854","8","bandit-task","92","369223","0.0-3.0-0.89","17","high"
"91","risky","53","blue-148","red-45","safe","risky","942","8","bandit-task","93","372695","0.0-3.0-0.90","17","high"
"92","safe","51","blue-40","red-52","safe","risky","1678","8","bandit-task","94","376806","0.0-3.0-0.91","17","high"
"93","safe","51","blue-170","red-68","safe","risky","1262","8","bandit-task","95","380542","0.0-3.0-0.92","17","high"
"94","safe","51","blue-1","red-113","safe","risky","838","8","bandit-task","96","383798","0.0-3.0-0.93","17","high"
"95","risky","53","blue-89","red-86","safe","risky","1462","8","bandit-task","97","387726","0.0-3.0-0.94","17","high"
"96","risky","58","blue-203","red-194","safe","risky","973","8","bandit-task","98","391166","0.0-3.0-0.95","17","high"
"97","safe","50","blue-67","red-92","safe","risky","1326","8","bandit-task","99","396318","0.0-3.0-0.96","17","high"
"98","risky","42","blue-172","red-109","safe","risky","838","8","bandit-task","100","399605","0.0-3.0-0.97","17","high"
"99","risky","35","blue-207","red-141","safe","risky","1190","8","bandit-task","101","403237","0.0-3.0-0.98","17","high"
"100","safe","49","blue-76","red-9","safe","risky","789","8","bandit-task","102","406445","0.0-3.0-0.99","17","high"
"101","risky","89","blue-101","red-57","safe","risky","862","8","bandit-task","103","410221","0.0-3.0-0.100","17","high"
"102","risky","82","blue-138","red-153","safe","risky","830","8","bandit-task","104","413456","0.0-3.0-0.101","17","high"
"103","safe","50","blue-168","red-103","safe","risky","838","8","bandit-task","105","416816","0.0-3.0-0.102","17","high"
"104","safe","50","blue-53","red-37","safe","risky","742","8","bandit-task","106","420015","0.0-3.0-0.103","17","high"
"105","risky","49","blue-122","red-195","safe","risky","686","8","bandit-task","107","423111","0.0-3.0-0.104","17","high"
"106","risky","36","blue-157","red-167","safe","risky","694","8","bandit-task","108","426407","0.0-3.0-0.105","17","high"
"107","risky","73","blue-219","red-140","safe","risky","766","8","bandit-task","109","429656","0.0-3.0-0.106","17","high"
"108","safe","51","blue-60","red-25","safe","risky","773","8","bandit-task","110","432975","0.0-3.0-0.107","17","high"
"109","risky","56","blue-158","red-133","safe","risky","1230","8","bandit-task","111","436815","0.0-3.0-0.108","17","high"
"110","risky","48","blue-96","red-65","safe","risky","1958","8","bandit-task","112","441590","0.0-3.0-0.109","17","high"
