"trial","choice","feedback","left_stimulus","right_stimulus","left_option","right_option","rt","distribution","trial_type","trial_index","time_elapsed","internal_node_id","participant","condition"
"1","risky","40","blue-70","red-133","risky","safe","2783","2","bandit-task","3","65669","0.0-3.0-0.0","56","high"
"2","safe","49","blue-40","red-18","risky","safe","1318","2","bandit-task","4","69925","0.0-3.0-0.1","56","high"
"3","risky","55","blue-220","red-82","risky","safe","2422","2","bandit-task","5","74885","0.0-3.0-0.2","56","high"
"4","safe","50","blue-124","red-55","risky","safe","999","2","bandit-task","6","78317","0.0-3.0-0.3","56","high"
"5","risky","43","blue-41","red-80","risky","safe","1159","2","bandit-task","7","82092","0.0-3.0-0.4","56","high"
"6","safe","49","blue-26","red-57","risky","safe","831","2","bandit-task","8","85348","0.0-3.0-0.5","56","high"
"7","risky","48","blue-132","red-68","risky","safe","1174","2","bandit-task","9","88996","0.0-3.0-0.6","56","high"
"8","safe","50","blue-98","red-167","risky","safe","773","2","bandit-task","10","92236","0.0-3.0-0.7","56","high"
"9","safe","50","blue-106","red-217","risky","safe","1966","2","bandit-task","11","96868","0.0-3.0-0.8","56","high"
"10","risky","56","blue-75","red-183","risky","safe","846","2","bandit-task","12","100299","0.0-3.0-0.9","56","high"
"11","risky","23","blue-8","red-135","risky","safe","695","2","bandit-task","13","103619","0.0-3.0-0.10","56","high"
"12","safe","50","blue-27","red-102","risky","safe","631","2","bandit-task","14","106675","0.0-3.0-0.11","56","high"
"13","risky","57","blue-179","red-152","risky","safe","766","2","bandit-task","15","110563","0.0-3.0-0.12","56","high"
"14","safe","50","blue-147","red-77","risky","safe","678","2","bandit-task","16","113419","0.0-3.0-0.13","56","high"
"15","risky","44","blue-172","red-195","risky","safe","694","2","bandit-task","17","116621","0.0-3.0-0.14","56","high"
"16","safe","50","blue-78","red-103","risky","safe","550","2","bandit-task","18","119677","0.0-3.0-0.15","56","high"
"17","risky","51","blue-69","red-52","risky","safe","566","2","bandit-task","19","123301","0.0-3.0-0.16","56","high"
"18","safe","52","blue-174","red-65","risky","safe","542","2","bandit-task","20","126581","0.0-3.0-0.17","56","high"
"19","risky","41","blue-184","red-72","risky","safe","646","2","bandit-task","21","129557","0.0-3.0-0.18","56","high"
"20","safe","50","blue-49","red-16","risky","safe","550","2","bandit-task","22","132493","0.0-3.0-0.19","56","high"
"21","risky","85","blue-46","red-31","risky","safe","558","2","bandit-task","23","135500","0.0-3.0-0.20","56","high"
"22","safe","51","blue-45","red-178","risky","safe","487","2","bandit-task","24","139804","0.0-3.0-0.21","56","high"
"23","risky","27","blue-20","red-198","risky","safe","942","2","bandit-task","25","143412","0.0-3.0-0.22","56","high"
"24","safe","50","blue-218","red-9","risky","safe","598","2","bandit-task","26","146324","0.0-3.0-0.23","56","high"
"25","risky","46","blue-126","red-120","risky","safe","462","2","bandit-task","27","149163","0.0-3.0-0.24","56","high"
"26","safe","49","blue-140","red-14","risky","safe","679","2","bandit-task","28","152299","0.0-3.0-0.25","56","high"
"27","risky","33","blue-216","red-125","risky","safe","591","2","bandit-task","29","155467","0.0-3.0-0.26","56","high"
"28","safe","51","blue-142","red-28","risky","safe","479","2","bandit-task","30","158467","0.0-3.0-0.27","56","high"
"29","risky","59","blue-141","red-61","risky","safe","479","2","bandit-task","31","161404","0.0-3.0-0.28","56","high"
"30","safe","49","blue-97","red-185","risky","safe","615","2","bandit-task","32","164459","0.0-3.0-0.29","56","high"
"31","risky","58","blue-30","red-79","risky","safe","446","2","bandit-task","33","167443","0.0-3.0-0.30","56","high"
"32","safe","51","blue-122","red-186","risky","safe","567","2","bandit-task","34","171019","0.0-3.0-0.31","56","high"
"33","risky","62","blue-117","red-171","risky","safe","543","2","bandit-task","35","173979","0.0-3.0-0.32","56","high"
"34","safe","49","blue-93","red-176","risky","safe","487","2","bandit-task","36","176877","0.0-3.0-0.33","56","high"
"35","risky","18","blue-200","red-134","risky","safe","486","2","bandit-task","37","179805","0.0-3.0-0.34","56","high"
"36","safe","49","blue-63","red-66","risky","safe","598","2","bandit-task","38","182804","0.0-3.0-0.35","56","high"
"37","risky","63","blue-34","red-203","risky","safe","567","2","bandit-task","39","185901","0.0-3.0-0.36","56","high"
"38","safe","51","blue-131","red-191","risky","safe","463","2","bandit-task","40","188940","0.0-3.0-0.37","56","high"
"39","risky","57","blue-21","red-111","risky","safe","615","2","bandit-task","41","192428","0.0-3.0-0.38","56","high"
"40","safe","49","blue-199","red-138","risky","safe","614","2","bandit-task","42","195508","0.0-3.0-0.39","56","high"
"41","risky","27","blue-15","red-105","risky","safe","646","2","bandit-task","43","198580","0.0-3.0-0.40","56","high"
"42","safe","50","blue-128","red-181","risky","safe","558","2","bandit-task","44","201731","0.0-3.0-0.41","56","high"
"43","risky","59","blue-205","red-37","risky","safe","447","2","bandit-task","45","204939","0.0-3.0-0.42","56","high"
"44","safe","51","blue-44","red-109","risky","safe","471","2","bandit-task","46","207915","0.0-3.0-0.43","56","high"
"45","risky","83","blue-92","red-88","risky","safe","471","2","bandit-task","47","210835","0.0-3.0-0.44","56","high"
"46","safe","50","blue-194","red-210","risky","safe","462","2","bandit-task","48","213747","0.0-3.0-0.45","56","high"
"47","risky","52","blue-104","red-192","risky","safe","486","2","bandit-task","49","232626","0.0-3.0-0.46","56","high"
"48","safe","48","blue-83","red-187","risky","safe","574","2","bandit-task","50","235586","0.0-3.0-0.47","56","high"
"49","risky","73","blue-59","red-188","risky","safe","494","2","bandit-task","51","238766","0.0-3.0-0.48","56","high"
"50","safe","49","blue-3","red-51","risky","safe","535","2","bandit-task","52","241494","0.0-3.0-0.49","56","high"
"51","risky","34","blue-53","red-95","risky","safe","606","2","bandit-task","53","244477","0.0-3.0-0.50","56","high"
"52","safe","48","blue-87","red-12","risky","safe","471","2","bandit-task","54","247381","0.0-3.0-0.51","56","high"
"53","risky","31","blue-4","red-11","risky","safe","694","2","bandit-task","55","273468","0.0-3.0-0.52","56","high"
"54","safe","51","blue-86","red-62","risky","safe","638","2","bandit-task","56","283892","0.0-3.0-0.53","56","high"
"55","risky","37","blue-190","red-115","risky","safe","663","2","bandit-task","57","286931","0.0-3.0-0.54","56","high"
"56","safe","50","blue-148","red-121","risky","safe","543","2","bandit-task","58","289867","0.0-3.0-0.55","56","high"
"57","risky","36","blue-56","red-91","risky","safe","487","2","bandit-task","59","292955","0.0-3.0-0.56","56","high"
"58","safe","49","blue-76","red-144","risky","safe","502","2","bandit-task","60","297731","0.0-3.0-0.57","56","high"
"59","risky","53","blue-119","red-118","risky","safe","462","2","bandit-task","61","326252","0.0-3.0-0.58","56","high"
"60","safe","50","blue-214","red-208","risky","safe","631","2","bandit-task","62","329268","0.0-3.0-0.59","56","high"
"61","risky","75","blue-64","red-129","risky","safe","399","2","bandit-task","63","332068","0.0-3.0-0.60","56","high"
"62","safe","49","blue-211","red-1","risky","safe","501","2","bandit-task","64","334972","0.0-3.0-0.61","56","high"
"63","risky","31","blue-71","red-101","risky","safe","1734","2","bandit-task","65","339132","0.0-3.0-0.62","56","high"
"64","safe","48","blue-166","red-22","risky","safe","478","2","bandit-task","66","342164","0.0-3.0-0.63","56","high"
"65","safe","48","blue-143","red-145","risky","safe","606","2","bandit-task","67","345507","0.0-3.0-0.64","56","high"
"66","safe","48","blue-38","red-114","risky","safe","487","2","bandit-task","68","348387","0.0-3.0-0.65","56","high"
"67","risky","17","blue-7","red-139","risky","safe","487","2","bandit-task","69","351459","0.0-3.0-0.66","56","high"
"68","safe","50","blue-204","red-153","risky","safe","398","2","bandit-task","70","354443","0.0-3.0-0.67","56","high"
"69","safe","50","blue-212","red-164","risky","safe","438","2","bandit-task","71","357347","0.0-3.0-0.68","56","high"
"70","safe","51","blue-33","red-110","risky","safe","350","2","bandit-task","72","360315","0.0-3.0-0.69","56","high"
"71","risky","59","blue-73","red-206","risky","safe","462","2","bandit-task","73","364291","0.0-3.0-0.70","56","high"
"72","safe","50","blue-84","red-155","risky","safe","502","2","bandit-task","74","367243","0.0-3.0-0.71","56","high"
"73","risky","73","blue-219","red-94","risky","safe","470","2","bandit-task","75","371146","0.0-3.0-0.72","56","high"
"74","safe","47","blue-123","red-207","risky","safe","462","2","bandit-task","76","374218","0.0-3.0-0.73","56","high"
"75","risky","18","blue-161","red-108","risky","safe","446","2","bandit-task","77","377066","0.0-3.0-0.74","56","high"
"76","safe","48","blue-182","red-213","risky","safe","422","2","bandit-task","78","380146","0.0-3.0-0.75","56","high"
"77","risky","54","blue-201","red-150","risky","safe","542","2","bandit-task","79","383610","0.0-3.0-0.76","56","high"
"78","safe","49","blue-90","red-58","risky","safe","750","2","bandit-task","80","386788","0.0-3.0-0.77","56","high"
"79","risky","53","blue-10","red-127","risky","safe","438","2","bandit-task","81","390179","0.0-3.0-0.78","56","high"
"80","safe","50","blue-107","red-136","risky","safe","6054","2","bandit-task","82","398923","0.0-3.0-0.79","56","high"
"81","risky","11","blue-39","red-159","risky","safe","406","2","bandit-task","83","402451","0.0-3.0-0.80","56","high"
"82","safe","49","blue-5","red-165","risky","safe","414","2","bandit-task","84","405819","0.0-3.0-0.81","56","high"
"83","safe","49","blue-151","red-180","risky","safe","590","2","bandit-task","85","409251","0.0-3.0-0.82","56","high"
"84","risky","44","blue-48","red-197","risky","safe","894","2","bandit-task","86","412595","0.0-3.0-0.83","56","high"
"85","safe","51","blue-85","red-169","risky","safe","510","2","bandit-task","87","415779","0.0-3.0-0.84","56","high"
"86","risky","49","blue-168","red-149","risky","safe","3622","2","bandit-task","88","422018","0.0-3.0-0.85","56","high"
"87","safe","50","blue-13","red-74","risky","safe","1182","2","bandit-task","89","425618","0.0-3.0-0.86","56","high"
"88","risky","16","blue-24","red-177","risky","safe","582","2","bandit-task","90","428938","0.0-3.0-0.87","56","high"
"89","safe","49","blue-189","red-42","risky","safe","534","2","bandit-task","91","431986","0.0-3.0-0.88","56","high"
"90","safe","49","blue-146","red-157","risky","safe","2078","2","bandit-task","92","436585","0.0-3.0-0.89","56","high"
"91","safe","51","blue-116","red-162","risky","safe","2127","2","bandit-task","93","441505","0.0-3.0-0.90","56","high"
"92","risky","25","blue-81","red-209","risky","safe","1014","2","bandit-task","94","445289","0.0-3.0-0.91","56","high"
"93","safe","50","blue-17","red-60","risky","safe","486","2","bandit-task","95","448476","0.0-3.0-0.92","56","high"
"94","safe","50","blue-158","red-137","risky","safe","1022","2","bandit-task","96","451980","0.0-3.0-0.93","56","high"
"95","safe","51","blue-193","red-47","risky","safe","1390","2","bandit-task","97","455955","0.0-3.0-0.94","56","high"
"96","safe","50","blue-170","red-23","risky","safe","862","2","bandit-task","98","459443","0.0-3.0-0.95","56","high"
"97","risky","45","blue-29","red-50","risky","safe","1607","2","bandit-task","99","463715","0.0-3.0-0.96","56","high"
"98","safe","52","blue-67","red-113","risky","safe","462","2","bandit-task","100","466603","0.0-3.0-0.97","56","high"
"99","safe","49","blue-163","red-54","risky","safe","829","2","bandit-task","101","470163","0.0-3.0-0.98","56","high"
"100","safe","51","blue-130","red-196","risky","safe","2190","2","bandit-task","102","474803","0.0-3.0-0.99","56","high"
"101","safe","50","blue-32","red-112","risky","safe","1726","2","bandit-task","103","479138","0.0-3.0-0.100","56","high"
"102","risky","38","blue-175","red-25","risky","safe","2230","2","bandit-task","104","483746","0.0-3.0-0.101","56","high"
"103","safe","50","blue-2","red-154","risky","safe","462","2","bandit-task","105","486874","0.0-3.0-0.102","56","high"
"104","safe","49","blue-96","red-6","risky","safe","566","2","bandit-task","106","489850","0.0-3.0-0.103","56","high"
"105","safe","47","blue-19","red-89","risky","safe","454","2","bandit-task","107","492722","0.0-3.0-0.104","56","high"
"106","risky","48","blue-160","red-36","risky","safe","581","2","bandit-task","108","495689","0.0-3.0-0.105","56","high"
"107","risky","68","blue-43","red-215","risky","safe","566","2","bandit-task","109","498681","0.0-3.0-0.106","56","high"
"108","risky","32","blue-173","red-100","risky","safe","478","2","bandit-task","110","501545","0.0-3.0-0.107","56","high"
"109","safe","50","blue-99","red-156","risky","safe","413","2","bandit-task","111","504337","0.0-3.0-0.108","56","high"
"110","safe","50","blue-35","red-202","risky","safe","406","2","bandit-task","112","507177","0.0-3.0-0.109","56","high"
