"trial","choice","action","feedback","left_stimulus","right_stimulus","left_option","right_option","rt","trial_type","trial_index","time_elapsed","internal_node_id","participant","condition"
"0","risky","claim","71","blue-151","red-99","risky","safe","2416","bandit-task","7","244872","0.0-6.0","20154","high"
"1","safe","claim","50","blue-172","red-29","risky","safe","1935","bandit-task","8","251528","0.0-7.0","20154","high"
"2","risky","claim","42","blue-94","red-196","risky","safe","785","bandit-task","9","256864","0.0-8.0","20154","high"
"3","safe","claim","49","blue-123","red-67","risky","safe","917","bandit-task","10","262029","0.0-9.0","20154","high"
"4","risky","claim","57","blue-6","red-113","risky","safe","689","bandit-task","11","267311","0.0-10.0","20154","high"
"5","safe","claim","50","blue-13","red-37","risky","safe","4104","bandit-task","12","275435","0.0-11.0","20154","high"
"6","safe","claim","50","blue-48","red-88","risky","safe","4383","bandit-task","13","284513","0.0-12.0","20154","high"
"7","safe","claim","50","blue-93","red-55","risky","safe","1048","bandit-task","14","289841","0.0-13.0","20154","high"
"8","risky","claim","39","blue-187","red-183","risky","safe","711","bandit-task","15","297209","0.0-14.0","20154","high"
"9","risky","claim","68","blue-144","red-197","risky","safe","1259","bandit-task","16","302641","0.0-15.0","20154","high"
"10","risky","claim","50","blue-54","red-157","risky","safe","1223","bandit-task","17","307919","0.0-16.0","20154","high"
"11","safe","claim","50","blue-126","red-65","risky","safe","483","bandit-task","18","313419","0.0-17.0","20154","high"
"12","risky","claim","75","blue-60","red-42","risky","safe","586","bandit-task","19","319039","0.0-18.0","20154","high"
"13","risky","claim","58","blue-50","red-141","risky","safe","789","bandit-task","20","323627","0.0-19.0","20154","high"
"14","safe","claim","48","blue-165","red-175","risky","safe","1379","bandit-task","21","329046","0.0-20.0","20154","high"
"15","risky","claim","75","blue-66","red-129","risky","safe","576","bandit-task","22","333505","0.0-21.0","20154","high"
"16","risky","claim","76","blue-168","red-181","risky","safe","566","bandit-task","23","337766","0.0-22.0","20154","high"
"17","risky","claim","75","blue-23","red-84","risky","safe","506","bandit-task","24","342056","0.0-23.0","20154","high"
"18","risky","claim","68","blue-185","red-97","risky","safe","536","bandit-task","25","347204","0.0-24.0","20154","high"
"19","safe","observe","52","blue-174","red-179","risky","safe","1251","bandit-task","26","353479","0.0-25.0","20154","high"
"20","risky","claim","64","blue-47","red-140","risky","safe","902","bandit-task","27","358877","0.0-26.0","20154","high"
"21","safe","claim","50","blue-106","red-57","risky","safe","1882","bandit-task","28","367028","0.0-27.0","20154","high"
"22","risky","claim","38","blue-3","red-39","risky","safe","536","bandit-task","29","374184","0.0-28.0","20154","high"
"23","risky","claim","37","blue-194","red-117","risky","safe","733","bandit-task","30","379094","0.0-29.0","20154","high"
"24","safe","observe","51","blue-158","red-40","risky","safe","2634","bandit-task","31","386730","0.0-30.0","20154","high"
"25","risky","claim","81","blue-162","red-30","risky","safe","2173","bandit-task","32","392804","0.0-31.0","20154","high"
"26","risky","claim","33","blue-35","red-61","risky","safe","534","bandit-task","33","397433","0.0-32.0","20154","high"
"27","safe","claim","51","blue-190","red-122","risky","safe","1344","bandit-task","34","402406","0.0-33.0","20154","high"
"28","risky","observe","54","blue-24","red-56","risky","safe","784","bandit-task","35","406970","0.0-34.0","20154","high"
"29","safe","claim","52","blue-83","red-150","risky","safe","533","bandit-task","36","411326","0.0-35.0","20154","high"
"30","risky","observe","60","blue-108","red-75","risky","safe","637","bandit-task","37","415627","0.0-36.0","20154","high"
"31","risky","observe","62","blue-81","red-46","risky","safe","593","bandit-task","38","419735","0.0-37.0","20154","high"
"32","risky","claim","54","blue-43","red-177","risky","safe","452","bandit-task","39","423736","0.0-38.0","20154","high"
"33","risky","claim","26","blue-138","red-15","risky","safe","468","bandit-task","40","429112","0.0-39.0","20154","high"
"34","risky","claim","38","blue-18","red-160","risky","safe","434","bandit-task","41","433812","0.0-40.0","20154","high"
"35","risky","claim","42","blue-22","red-121","risky","safe","462","bandit-task","42","437584","0.0-41.0","20154","high"
"36","risky","claim","72","blue-107","red-155","risky","safe","484","bandit-task","43","442155","0.0-42.0","20154","high"
"37","risky","claim","28","blue-2","red-180","risky","safe","514","bandit-task","44","447405","0.0-43.0","20154","high"
"38","risky","claim","21","blue-90","red-153","risky","safe","478","bandit-task","45","452275","0.0-44.0","20154","high"
"39","risky","claim","57","blue-96","red-186","risky","safe","468","bandit-task","46","456363","0.0-45.0","20154","high"
"40","safe","claim","50","blue-53","red-17","risky","safe","958","bandit-task","47","461843","0.0-46.0","20154","high"
"41","risky","claim","71","blue-71","red-49","risky","safe","970","bandit-task","48","467223","0.0-47.0","20154","high"
"42","risky","claim","77","blue-124","red-77","risky","safe","531","bandit-task","49","471834","0.0-48.0","20154","high"
"43","risky","claim","38","blue-131","red-146","risky","safe","967","bandit-task","50","476751","0.0-49.0","20154","high"
"44","risky","claim","66","blue-28","red-133","risky","safe","547","bandit-task","51","481289","0.0-50.0","20154","high"
"45","risky","claim","18","blue-91","red-114","risky","safe","538","bandit-task","52","485653","0.0-51.0","20154","high"
"46","risky","claim","72","blue-161","red-167","risky","safe","1211","bandit-task","53","490734","0.0-52.0","20154","high"
"47","safe","observe","51","blue-137","red-64","risky","safe","846","bandit-task","54","495297","0.0-53.0","20154","high"
"48","risky","claim","36","blue-25","red-199","risky","safe","477","bandit-task","55","499708","0.0-54.0","20154","high"
"49","risky","claim","79","blue-36","red-38","risky","safe","462","bandit-task","56","504441","0.0-55.0","20154","high"
"50","risky","claim","65","blue-19","red-120","risky","safe","455","bandit-task","57","508684","0.0-56.0","20154","high"
"51","risky","claim","69","blue-111","red-87","risky","safe","452","bandit-task","58","513455","0.0-57.0","20154","high"
"52","risky","claim","46","blue-105","red-45","risky","safe","454","bandit-task","59","518315","0.0-58.0","20154","high"
"53","risky","claim","79","blue-98","red-192","risky","safe","497","bandit-task","60","522422","0.0-59.0","20154","high"
"54","risky","claim","43","blue-184","red-127","risky","safe","491","bandit-task","61","526432","0.0-60.0","20154","high"
"55","risky","claim","22","blue-95","red-195","risky","safe","493","bandit-task","62","530484","0.0-61.0","20154","high"
"56","risky","claim","22","blue-176","red-189","risky","safe","483","bandit-task","63","534502","0.0-62.0","20154","high"
"57","risky","claim","25","blue-166","red-80","risky","safe","737","bandit-task","64","539792","0.0-63.0","20154","high"
"58","risky","claim","39","blue-89","red-76","risky","safe","520","bandit-task","65","544883","0.0-64.0","20154","high"
"59","risky","claim","72","blue-147","red-14","risky","safe","572","bandit-task","66","549949","0.0-65.0","20154","high"
"60","risky","claim","51","blue-34","red-32","risky","safe","1668","bandit-task","67","555623","0.0-66.0","20154","high"
"61","risky","claim","71","blue-4","red-198","risky","safe","544","bandit-task","68","561246","0.0-67.0","20154","high"
"62","risky","claim","35","blue-110","red-86","risky","safe","568","bandit-task","69","565313","0.0-68.0","20154","high"
"63","risky","claim","50","blue-125","red-159","risky","safe","533","bandit-task","70","569035","0.0-69.0","20154","high"
"64","risky","claim","28","blue-136","red-130","risky","safe","551","bandit-task","71","574433","0.0-70.0","20154","high"
"65","risky","claim","15","blue-128","red-119","risky","safe","572","bandit-task","72","578500","0.0-71.0","20154","high"
"66","risky","claim","24","blue-62","red-52","risky","safe","497","bandit-task","73","582503","0.0-72.0","20154","high"
"67","risky","claim","30","blue-182","red-59","risky","safe","1685","bandit-task","74","588195","0.0-73.0","20154","high"
"68","risky","claim","64","blue-69","red-109","risky","safe","878","bandit-task","75","595451","0.0-74.0","20154","high"
"69","risky","claim","80","blue-191","red-101","risky","safe","670","bandit-task","76","600453","0.0-75.0","20154","high"
"70","risky","claim","74","blue-154","red-78","risky","safe","589","bandit-task","77","605961","0.0-76.0","20154","high"
"71","risky","claim","18","blue-82","red-202","risky","safe","671","bandit-task","78","611062","0.0-77.0","20154","high"
"72","risky","claim","28","blue-1","red-203","risky","safe","1306","bandit-task","79","616805","0.0-78.0","20154","high"
"73","risky","claim","17","blue-135","red-79","risky","safe","2281","bandit-task","80","625208","0.0-79.0","20154","high"
"74","risky","claim","39","blue-193","red-16","risky","safe","697","bandit-task","81","631169","0.0-80.0","20154","high"
"75","risky","claim","71","blue-20","red-163","risky","safe","699","bandit-task","82","635409","0.0-81.0","20154","high"
"76","risky","claim","45","blue-63","red-200","risky","safe","534","bandit-task","83","641601","0.0-82.0","20154","high"
"77","risky","claim","25","blue-204","red-11","risky","safe","637","bandit-task","84","646075","0.0-83.0","20154","high"
"78","risky","claim","54","blue-51","red-104","risky","safe","1412","bandit-task","85","651448","0.0-84.0","20154","high"
"79","risky","claim","14","blue-5","red-132","risky","safe","640","bandit-task","86","656846","0.0-85.0","20154","high"
"80","risky","claim","59","blue-139","red-70","risky","safe","1672","bandit-task","87","663301","0.0-86.0","20154","high"
"81","risky","claim","34","blue-58","red-33","risky","safe","1563","bandit-task","88","669615","0.0-87.0","20154","high"
"82","risky","claim","33","blue-142","red-44","risky","safe","669","bandit-task","89","674242","0.0-88.0","20154","high"
"83","risky","claim","41","blue-103","red-164","risky","safe","1160","bandit-task","90","679927","0.0-89.0","20154","high"
"84","risky","claim","43","blue-31","red-134","risky","safe","3294","bandit-task","91","687819","0.0-90.0","20154","high"
"85","risky","claim","57","blue-188","red-72","risky","safe","629","bandit-task","92","692734","0.0-91.0","20154","high"
"86","risky","claim","82","blue-118","red-152","risky","safe","618","bandit-task","93","697294","0.0-92.0","20154","high"
"87","risky","claim","73","blue-112","red-115","risky","safe","684","bandit-task","94","701937","0.0-93.0","20154","high"
"88","risky","claim","22","blue-27","red-148","risky","safe","543","bandit-task","95","706222","0.0-94.0","20154","high"
"89","risky","claim","17","blue-74","red-149","risky","safe","539","bandit-task","96","711162","0.0-95.0","20154","high"
"90","risky","claim","90","blue-116","red-73","risky","safe","720","bandit-task","97","715804","0.0-96.0","20154","high"
"91","risky","claim","28","blue-156","red-201","risky","safe","510","bandit-task","98","719630","0.0-97.0","20154","high"
"92","risky","claim","71","blue-92","red-143","risky","safe","550","bandit-task","99","723217","0.0-98.0","20154","high"
"93","risky","claim","34","blue-170","red-173","risky","safe","522","bandit-task","100","727581","0.0-99.0","20154","high"
"94","risky","claim","56","blue-12","red-21","risky","safe","492","bandit-task","101","732071","0.0-100.0","20154","high"
"95","risky","claim","23","blue-7","red-9","risky","safe","510","bandit-task","102","736436","0.0-101.0","20154","high"
"96","risky","claim","73","blue-171","red-41","risky","safe","515","bandit-task","103","742323","0.0-102.0","20154","high"
"97","risky","claim","60","blue-85","red-100","risky","safe","497","bandit-task","104","747334","0.0-103.0","20154","high"
"98","risky","claim","54","blue-10","red-8","risky","safe","493","bandit-task","105","751161","0.0-104.0","20154","high"
"99","risky","claim","27","blue-169","red-26","risky","safe","495","bandit-task","106","755524","0.0-105.0","20154","high"
