"trial","choice","action","feedback","left_stimulus","right_stimulus","left_option","right_option","rt","trial_type","trial_index","time_elapsed","internal_node_id","participant","condition"
"0","safe","observe","50","red-72","blue-160","safe","risky","2913","bandit-task","10","316588","0.0-6.0","20545","low"
"1","risky","claim","81","red-72","blue-160","safe","risky","1205","bandit-task","11","322547","0.0-7.0","20545","low"
"2","safe","claim","51","red-72","blue-160","safe","risky","2090","bandit-task","12","328936","0.0-8.0","20545","low"
"3","risky","observe","67","red-72","blue-160","safe","risky","501","bandit-task","13","332755","0.0-9.0","20545","low"
"4","safe","claim","50","red-72","blue-160","safe","risky","1112","bandit-task","14","338645","0.0-10.0","20545","low"
"5","safe","observe","49","red-72","blue-160","safe","risky","542","bandit-task","15","343099","0.0-11.0","20545","low"
"6","risky","claim","26","red-72","blue-160","safe","risky","714","bandit-task","16","347850","0.0-12.0","20545","low"
"7","risky","claim","46","red-72","blue-160","safe","risky","807","bandit-task","17","352487","0.0-13.0","20545","low"
"8","risky","observe","72","red-72","blue-160","safe","risky","887","bandit-task","18","357211","0.0-14.0","20545","low"
"9","risky","claim","72","red-72","blue-160","safe","risky","794","bandit-task","19","361725","0.0-15.0","20545","low"
"10","safe","observe","49","red-72","blue-160","safe","risky","741","bandit-task","20","366502","0.0-16.0","20545","low"
"11","risky","claim","48","red-72","blue-160","safe","risky","746","bandit-task","21","371381","0.0-17.0","20545","low"
"12","risky","claim","46","red-72","blue-160","safe","risky","753","bandit-task","22","376505","0.0-18.0","20545","low"
"13","risky","claim","83","red-72","blue-160","safe","risky","720","bandit-task","23","380920","0.0-19.0","20545","low"
"14","risky","observe","19","red-72","blue-160","safe","risky","664","bandit-task","24","385448","0.0-20.0","20545","low"
"15","safe","observe","49","red-72","blue-160","safe","risky","755","bandit-task","25","390859","0.0-21.0","20545","low"
"16","safe","claim","49","red-72","blue-160","safe","risky","722","bandit-task","26","395731","0.0-22.0","20545","low"
"17","risky","observe","60","red-72","blue-160","safe","risky","775","bandit-task","27","400351","0.0-23.0","20545","low"
"18","risky","claim","52","red-72","blue-160","safe","risky","755","bandit-task","28","406297","0.0-24.0","20545","low"
"19","safe","claim","50","red-72","blue-160","safe","risky","1308","bandit-task","29","412496","0.0-25.0","20545","low"
"20","risky","claim","64","red-72","blue-160","safe","risky","834","bandit-task","30","417676","0.0-26.0","20545","low"
"21","safe","claim","52","red-72","blue-160","safe","risky","822","bandit-task","31","422601","0.0-27.0","20545","low"
"22","risky","observe","59","red-72","blue-160","safe","risky","824","bandit-task","32","427655","0.0-28.0","20545","low"
"23","safe","observe","50","red-72","blue-160","safe","risky","533","bandit-task","33","431854","0.0-29.0","20545","low"
"24","risky","claim","57","red-72","blue-160","safe","risky","641","bandit-task","34","437398","0.0-30.0","20545","low"
"25","safe","claim","49","red-72","blue-160","safe","risky","494","bandit-task","35","441454","0.0-31.0","20545","low"
"26","risky","claim","61","red-72","blue-160","safe","risky","630","bandit-task","36","445902","0.0-32.0","20545","low"
"27","safe","claim","51","red-72","blue-160","safe","risky","457","bandit-task","37","449890","0.0-33.0","20545","low"
"28","risky","claim","53","red-72","blue-160","safe","risky","499","bandit-task","38","454042","0.0-34.0","20545","low"
"29","safe","claim","51","red-72","blue-160","safe","risky","510","bandit-task","39","457580","0.0-35.0","20545","low"
"30","risky","claim","32","red-72","blue-160","safe","risky","487","bandit-task","40","461938","0.0-36.0","20545","low"
"31","safe","observe","49","red-72","blue-160","safe","risky","441","bandit-task","41","465490","0.0-37.0","20545","low"
"32","risky","observe","27","red-72","blue-160","safe","risky","610","bandit-task","42","470504","0.0-38.0","20545","low"
"33","safe","claim","49","red-72","blue-160","safe","risky","546","bandit-task","43","475121","0.0-39.0","20545","low"
"34","risky","claim","56","red-72","blue-160","safe","risky","515","bandit-task","44","479184","0.0-40.0","20545","low"
"35","safe","claim","50","red-72","blue-160","safe","risky","429","bandit-task","45","484260","0.0-41.0","20545","low"
"36","risky","claim","44","red-72","blue-160","safe","risky","503","bandit-task","46","490683","0.0-42.0","20545","low"
"37","safe","claim","51","red-72","blue-160","safe","risky","553","bandit-task","47","494700","0.0-43.0","20545","low"
"38","risky","observe","86","red-72","blue-160","safe","risky","461","bandit-task","48","498801","0.0-44.0","20545","low"
"39","safe","claim","48","red-72","blue-160","safe","risky","502","bandit-task","49","502731","0.0-45.0","20545","low"
"40","risky","claim","37","red-72","blue-160","safe","risky","363","bandit-task","50","506508","0.0-46.0","20545","low"
"41","safe","claim","50","red-72","blue-160","safe","risky","415","bandit-task","51","510529","0.0-47.0","20545","low"
"42","risky","claim","87","red-72","blue-160","safe","risky","404","bandit-task","52","514336","0.0-48.0","20545","low"
"43","safe","claim","50","red-72","blue-160","safe","risky","553","bandit-task","53","518573","0.0-49.0","20545","low"
"44","risky","claim","70","red-72","blue-160","safe","risky","423","bandit-task","54","522382","0.0-50.0","20545","low"
"45","safe","claim","50","red-72","blue-160","safe","risky","623","bandit-task","55","526939","0.0-51.0","20545","low"
"46","risky","claim","48","red-72","blue-160","safe","risky","512","bandit-task","56","530479","0.0-52.0","20545","low"
"47","safe","claim","49","red-72","blue-160","safe","risky","452","bandit-task","57","534000","0.0-53.0","20545","low"
"48","risky","observe","32","red-72","blue-160","safe","risky","403","bandit-task","58","537352","0.0-54.0","20545","low"
"49","safe","observe","50","red-72","blue-160","safe","risky","450","bandit-task","59","540717","0.0-55.0","20545","low"
"50","risky","claim","68","red-72","blue-160","safe","risky","474","bandit-task","60","544295","0.0-56.0","20545","low"
"51","safe","claim","50","red-72","blue-160","safe","risky","356","bandit-task","61","547578","0.0-57.0","20545","low"
"52","risky","claim","33","red-72","blue-160","safe","risky","363","bandit-task","62","550988","0.0-58.0","20545","low"
"53","safe","claim","50","red-72","blue-160","safe","risky","361","bandit-task","63","554336","0.0-59.0","20545","low"
"54","safe","claim","50","red-72","blue-160","safe","risky","392","bandit-task","64","558064","0.0-60.0","20545","low"
"55","risky","claim","59","red-72","blue-160","safe","risky","411","bandit-task","65","562020","0.0-61.0","20545","low"
"56","risky","claim","28","red-72","blue-160","safe","risky","847","bandit-task","66","566202","0.0-62.0","20545","low"
"57","safe","claim","49","red-72","blue-160","safe","risky","393","bandit-task","67","569651","0.0-63.0","20545","low"
"58","risky","observe","34","red-72","blue-160","safe","risky","415","bandit-task","68","572959","0.0-64.0","20545","low"
"59","safe","observe","49","red-72","blue-160","safe","risky","374","bandit-task","69","576239","0.0-65.0","20545","low"
"60","risky","claim","17","red-72","blue-160","safe","risky","1102","bandit-task","70","580497","0.0-66.0","20545","low"
"61","safe","claim","49","red-72","blue-160","safe","risky","355","bandit-task","71","584495","0.0-67.0","20545","low"
"62","risky","claim","41","red-72","blue-160","safe","risky","494","bandit-task","72","588149","0.0-68.0","20545","low"
"63","safe","claim","49","red-72","blue-160","safe","risky","1494","bandit-task","73","594503","0.0-69.0","20545","low"
"64","risky","claim","35","red-72","blue-160","safe","risky","685","bandit-task","74","599405","0.0-70.0","20545","low"
"65","safe","claim","51","red-72","blue-160","safe","risky","777","bandit-task","75","603814","0.0-71.0","20545","low"
"66","risky","claim","48","red-72","blue-160","safe","risky","494","bandit-task","76","609479","0.0-72.0","20545","low"
"67","safe","claim","51","red-72","blue-160","safe","risky","662","bandit-task","77","613395","0.0-73.0","20545","low"
"68","risky","claim","75","red-72","blue-160","safe","risky","447","bandit-task","78","617260","0.0-74.0","20545","low"
"69","safe","claim","50","red-72","blue-160","safe","risky","351","bandit-task","79","620589","0.0-75.0","20545","low"
"70","risky","claim","76","red-72","blue-160","safe","risky","404","bandit-task","80","624137","0.0-76.0","20545","low"
"71","safe","observe","49","red-72","blue-160","safe","risky","453","bandit-task","81","627583","0.0-77.0","20545","low"
"72","risky","observe","41","red-72","blue-160","safe","risky","547","bandit-task","82","633014","0.0-78.0","20545","low"
"73","safe","claim","51","red-72","blue-160","safe","risky","884","bandit-task","83","636617","0.0-79.0","20545","low"
"74","risky","claim","84","red-72","blue-160","safe","risky","779","bandit-task","84","641943","0.0-80.0","20545","low"
"75","safe","claim","50","red-72","blue-160","safe","risky","623","bandit-task","85","650697","0.0-81.0","20545","low"
"76","risky","claim","65","red-72","blue-160","safe","risky","2638","bandit-task","86","657022","0.0-82.0","20545","low"
"77","safe","claim","52","red-72","blue-160","safe","risky","804","bandit-task","87","661439","0.0-83.0","20545","low"
"78","risky","claim","64","red-72","blue-160","safe","risky","1816","bandit-task","88","666670","0.0-84.0","20545","low"
"79","safe","claim","48","red-72","blue-160","safe","risky","995","bandit-task","89","670790","0.0-85.0","20545","low"
"80","risky","claim","79","red-72","blue-160","safe","risky","627","bandit-task","90","674767","0.0-86.0","20545","low"
"81","safe","claim","50","red-72","blue-160","safe","risky","507","bandit-task","91","677992","0.0-87.0","20545","low"
"82","risky","claim","83","red-72","blue-160","safe","risky","768","bandit-task","92","681865","0.0-88.0","20545","low"
"83","safe","claim","52","red-72","blue-160","safe","risky","545","bandit-task","93","686054","0.0-89.0","20545","low"
"84","risky","claim","26","red-72","blue-160","safe","risky","652","bandit-task","94","690749","0.0-90.0","20545","low"
"85","safe","claim","49","red-72","blue-160","safe","risky","514","bandit-task","95","694326","0.0-91.0","20545","low"
"86","risky","claim","89","red-72","blue-160","safe","risky","392","bandit-task","96","697737","0.0-92.0","20545","low"
"87","safe","claim","50","red-72","blue-160","safe","risky","620","bandit-task","97","701484","0.0-93.0","20545","low"
"88","risky","claim","51","red-72","blue-160","safe","risky","1062","bandit-task","98","705501","0.0-94.0","20545","low"
"89","safe","claim","50","red-72","blue-160","safe","risky","544","bandit-task","99","708902","0.0-95.0","20545","low"
"90","risky","claim","25","red-72","blue-160","safe","risky","488","bandit-task","100","712603","0.0-96.0","20545","low"
"91","safe","claim","49","red-72","blue-160","safe","risky","544","bandit-task","101","716112","0.0-97.0","20545","low"
"92","risky","claim","86","red-72","blue-160","safe","risky","473","bandit-task","102","719611","0.0-98.0","20545","low"
"93","safe","claim","50","red-72","blue-160","safe","risky","595","bandit-task","103","723350","0.0-99.0","20545","low"
"94","risky","claim","42","red-72","blue-160","safe","risky","382","bandit-task","104","726759","0.0-100.0","20545","low"
"95","safe","claim","50","red-72","blue-160","safe","risky","644","bandit-task","105","730427","0.0-101.0","20545","low"
"96","risky","claim","32","red-72","blue-160","safe","risky","660","bandit-task","106","734225","0.0-102.0","20545","low"
"97","safe","claim","51","red-72","blue-160","safe","risky","653","bandit-task","107","738422","0.0-103.0","20545","low"
"98","risky","claim","81","red-72","blue-160","safe","risky","563","bandit-task","108","742130","0.0-104.0","20545","low"
"99","safe","claim","50","red-72","blue-160","safe","risky","825","bandit-task","109","746085","0.0-105.0","20545","low"
