"trial","choice","action","feedback","left_stimulus","right_stimulus","left_option","right_option","rt","trial_type","trial_index","time_elapsed","internal_node_id","participant","condition"
"0","risky","observe","34","blue-7","red-203","risky","safe","1323","bandit-task","10","181653","0.0-6.0","20810","high"
"1","safe","claim","48","blue-156","red-88","risky","safe","630","bandit-task","11","186637","0.0-7.0","20810","high"
"2","risky","observe","80","blue-57","red-151","risky","safe","599","bandit-task","12","191587","0.0-8.0","20810","high"
"3","safe","claim","52","blue-130","red-6","risky","safe","563","bandit-task","13","195636","0.0-9.0","20810","high"
"4","risky","observe","67","blue-82","red-180","risky","safe","524","bandit-task","14","199583","0.0-10.0","20810","high"
"5","risky","observe","75","blue-23","red-42","risky","safe","524","bandit-task","15","204048","0.0-11.0","20810","high"
"6","safe","observe","50","blue-94","red-115","risky","safe","527","bandit-task","16","208187","0.0-12.0","20810","high"
"7","risky","claim","62","blue-196","red-192","risky","safe","476","bandit-task","17","212988","0.0-13.0","20810","high"
"8","safe","observe","49","blue-184","red-125","risky","safe","478","bandit-task","18","217140","0.0-14.0","20810","high"
"9","risky","claim","38","blue-102","red-119","risky","safe","620","bandit-task","19","221319","0.0-15.0","20810","high"
"10","safe","claim","50","blue-139","red-163","risky","safe","619","bandit-task","20","225888","0.0-16.0","20810","high"
"11","safe","claim","52","blue-87","red-36","risky","safe","523","bandit-task","21","230008","0.0-17.0","20810","high"
"12","risky","claim","73","blue-59","red-157","risky","safe","463","bandit-task","22","234074","0.0-18.0","20810","high"
"13","safe","observe","49","blue-107","red-165","risky","safe","796","bandit-task","23","238425","0.0-19.0","20810","high"
"14","risky","observe","76","blue-101","red-53","risky","safe","479","bandit-task","24","242417","0.0-20.0","20810","high"
"15","safe","claim","51","blue-16","red-173","risky","safe","457","bandit-task","25","246225","0.0-21.0","20810","high"
"16","risky","claim","72","blue-175","red-38","risky","safe","477","bandit-task","26","250594","0.0-22.0","20810","high"
"17","safe","observe","51","blue-148","red-179","risky","safe","822","bandit-task","27","254649","0.0-23.0","20810","high"
"18","risky","claim","25","blue-198","red-172","risky","safe","518","bandit-task","28","259019","0.0-24.0","20810","high"
"19","safe","observe","50","blue-18","red-55","risky","safe","436","bandit-task","29","263011","0.0-25.0","20810","high"
"20","risky","claim","17","blue-5","red-122","risky","safe","515","bandit-task","30","267381","0.0-26.0","20810","high"
"21","safe","observe","52","blue-89","red-141","risky","safe","492","bandit-task","31","270987","0.0-27.0","20810","high"
"22","risky","observe","87","blue-171","red-20","risky","safe","806","bandit-task","32","274787","0.0-28.0","20810","high"
"23","risky","claim","77","blue-123","red-75","risky","safe","539","bandit-task","33","278981","0.0-29.0","20810","high"
"24","risky","observe","24","blue-168","red-65","risky","safe","381","bandit-task","34","283671","0.0-30.0","20810","high"
"25","safe","observe","51","blue-162","red-182","risky","safe","653","bandit-task","35","287815","0.0-31.0","20810","high"
"26","risky","claim","32","blue-78","red-22","risky","safe","403","bandit-task","36","291570","0.0-32.0","20810","high"
"27","safe","observe","52","blue-4","red-80","risky","safe","483","bandit-task","37","295104","0.0-33.0","20810","high"
"28","risky","observe","84","blue-2","red-34","risky","safe","496","bandit-task","38","298593","0.0-34.0","20810","high"
"29","safe","observe","50","blue-167","red-66","risky","safe","467","bandit-task","39","302135","0.0-35.0","20810","high"
"30","risky","claim","64","blue-128","red-159","risky","safe","390","bandit-task","40","305534","0.0-36.0","20810","high"
"31","safe","observe","51","blue-39","red-96","risky","safe","423","bandit-task","41","308930","0.0-37.0","20810","high"
"32","risky","claim","24","blue-129","red-104","risky","safe","415","bandit-task","42","312239","0.0-38.0","20810","high"
"33","safe","observe","51","blue-153","red-118","risky","safe","385","bandit-task","43","315614","0.0-39.0","20810","high"
"34","risky","claim","18","blue-33","red-86","risky","safe","548","bandit-task","44","319749","0.0-40.0","20810","high"
"35","safe","claim","49","blue-164","red-32","risky","safe","421","bandit-task","45","323709","0.0-41.0","20810","high"
"36","risky","claim","39","blue-187","red-147","risky","safe","457","bandit-task","46","327491","0.0-42.0","20810","high"
"37","safe","observe","49","blue-45","red-81","risky","safe","424","bandit-task","47","331324","0.0-43.0","20810","high"
"38","risky","claim","31","blue-160","red-69","risky","safe","442","bandit-task","48","334812","0.0-44.0","20810","high"
"39","safe","observe","50","blue-202","red-31","risky","safe","449","bandit-task","49","339118","0.0-45.0","20810","high"
"40","risky","claim","83","blue-91","red-137","risky","safe","508","bandit-task","50","343105","0.0-46.0","20810","high"
"41","safe","claim","49","blue-24","red-145","risky","safe","481","bandit-task","51","346655","0.0-47.0","20810","high"
"42","risky","claim","68","blue-150","red-103","risky","safe","492","bandit-task","52","350294","0.0-48.0","20810","high"
"43","risky","claim","34","blue-177","red-109","risky","safe","556","bandit-task","53","353861","0.0-49.0","20810","high"
"44","safe","observe","50","blue-135","red-10","risky","safe","395","bandit-task","54","357893","0.0-50.0","20810","high"
"45","risky","claim","44","blue-76","red-176","risky","safe","459","bandit-task","55","361550","0.0-51.0","20810","high"
"46","safe","observe","50","blue-60","red-29","risky","safe","396","bandit-task","56","365051","0.0-52.0","20810","high"
"47","risky","observe","68","blue-188","red-67","risky","safe","493","bandit-task","57","368630","0.0-53.0","20810","high"
"48","safe","observe","48","blue-52","red-47","risky","safe","657","bandit-task","58","372938","0.0-54.0","20810","high"
"49","risky","claim","62","blue-11","red-195","risky","safe","438","bandit-task","59","376384","0.0-55.0","20810","high"
"50","risky","observe","86","blue-14","red-121","risky","safe","467","bandit-task","60","380605","0.0-56.0","20810","high"
"51","safe","observe","51","blue-136","red-131","risky","safe","711","bandit-task","61","384229","0.0-57.0","20810","high"
"52","risky","claim","36","blue-155","red-13","risky","safe","454","bandit-task","62","387957","0.0-58.0","20810","high"
"53","safe","observe","50","blue-95","red-127","risky","safe","437","bandit-task","63","393112","0.0-59.0","20810","high"
"54","risky","claim","68","blue-116","red-48","risky","safe","485","bandit-task","64","397032","0.0-60.0","20810","high"
"55","safe","observe","51","blue-99","red-62","risky","safe","378","bandit-task","65","400736","0.0-61.0","20810","high"
"56","risky","observe","54","blue-120","red-111","risky","safe","402","bandit-task","66","403964","0.0-62.0","20810","high"
"57","risky","claim","54","blue-74","red-70","risky","safe","410","bandit-task","67","407780","0.0-63.0","20810","high"
"58","safe","observe","51","blue-201","red-181","risky","safe","443","bandit-task","68","411661","0.0-64.0","20810","high"
"59","risky","claim","77","blue-112","red-113","risky","safe","406","bandit-task","69","415167","0.0-65.0","20810","high"
"60","safe","observe","51","blue-79","red-197","risky","safe","386","bandit-task","70","418862","0.0-66.0","20810","high"
"61","risky","claim","14","blue-84","red-28","risky","safe","500","bandit-task","71","423615","0.0-67.0","20810","high"
"62","safe","observe","49","blue-19","red-8","risky","safe","506","bandit-task","72","427399","0.0-68.0","20810","high"
"63","risky","claim","38","blue-114","red-1","risky","safe","503","bandit-task","73","431393","0.0-69.0","20810","high"
"64","safe","observe","51","blue-71","red-12","risky","safe","430","bandit-task","74","434743","0.0-70.0","20810","high"
"65","risky","claim","81","blue-143","red-17","risky","safe","451","bandit-task","75","438510","0.0-71.0","20810","high"
"66","safe","observe","50","blue-142","red-169","risky","safe","514","bandit-task","76","441926","0.0-72.0","20810","high"
"67","risky","claim","59","blue-200","red-56","risky","safe","464","bandit-task","77","445358","0.0-73.0","20810","high"
"68","safe","observe","50","blue-98","red-41","risky","safe","347","bandit-task","78","448570","0.0-74.0","20810","high"
"69","risky","observe","25","blue-152","red-108","risky","safe","381","bandit-task","79","452491","0.0-75.0","20810","high"
"70","safe","claim","50","blue-90","red-40","risky","safe","354","bandit-task","80","457116","0.0-76.0","20810","high"
"71","safe","claim","49","blue-63","red-26","risky","safe","2988","bandit-task","81","463531","0.0-77.0","20810","high"
"72","risky","observe","72","blue-77","red-144","risky","safe","595","bandit-task","82","467265","0.0-78.0","20810","high"
"73","safe","claim","50","blue-46","red-105","risky","safe","386","bandit-task","83","470820","0.0-79.0","20810","high"
"74","risky","observe","82","blue-93","red-138","risky","safe","1001","bandit-task","84","474651","0.0-80.0","20810","high"
"75","safe","claim","51","blue-64","red-61","risky","safe","466","bandit-task","85","478242","0.0-81.0","20810","high"
"76","risky","claim","52","blue-85","red-199","risky","safe","485","bandit-task","86","481714","0.0-82.0","20810","high"
"77","safe","observe","49","blue-189","red-21","risky","safe","386","bandit-task","87","485402","0.0-83.0","20810","high"
"78","risky","observe","69","blue-9","red-161","risky","safe","489","bandit-task","88","488865","0.0-84.0","20810","high"
"79","safe","claim","50","blue-72","red-50","risky","safe","724","bandit-task","89","492575","0.0-85.0","20810","high"
"80","risky","observe","29","blue-149","red-51","risky","safe","429","bandit-task","90","495834","0.0-86.0","20810","high"
"81","safe","observe","49","blue-154","red-97","risky","safe","372","bandit-task","91","499450","0.0-87.0","20810","high"
"82","risky","observe","48","blue-193","red-194","risky","safe","444","bandit-task","92","503695","0.0-88.0","20810","high"
"83","risky","claim","28","blue-68","red-140","risky","safe","512","bandit-task","93","507427","0.0-89.0","20810","high"
"84","safe","observe","49","blue-100","red-106","risky","safe","495","bandit-task","94","511307","0.0-90.0","20810","high"
"85","risky","observe","63","blue-186","red-49","risky","safe","405","bandit-task","95","514720","0.0-91.0","20810","high"
"86","safe","observe","49","blue-191","red-190","risky","safe","541","bandit-task","96","518633","0.0-92.0","20810","high"
"87","risky","observe","78","blue-58","red-183","risky","safe","490","bandit-task","97","522628","0.0-93.0","20810","high"
"88","safe","claim","50","blue-124","red-37","risky","safe","418","bandit-task","98","526613","0.0-94.0","20810","high"
"89","risky","observe","65","blue-44","red-117","risky","safe","409","bandit-task","99","529913","0.0-95.0","20810","high"
"90","safe","observe","51","blue-15","red-3","risky","safe","428","bandit-task","100","533359","0.0-96.0","20810","high"
"91","risky","observe","37","blue-170","red-92","risky","safe","495","bandit-task","101","537624","0.0-97.0","20810","high"
"92","safe","observe","49","blue-134","red-178","risky","safe","391","bandit-task","102","541211","0.0-98.0","20810","high"
"93","risky","claim","60","blue-133","red-27","risky","safe","446","bandit-task","103","544897","0.0-99.0","20810","high"
"94","safe","observe","49","blue-73","red-110","risky","safe","384","bandit-task","104","549106","0.0-100.0","20810","high"
"95","risky","observe","34","blue-43","red-30","risky","safe","378","bandit-task","105","552390","0.0-101.0","20810","high"
"96","safe","observe","50","blue-54","red-35","risky","safe","536","bandit-task","106","556168","0.0-102.0","20810","high"
"97","risky","claim","16","blue-132","red-174","risky","safe","443","bandit-task","107","559706","0.0-103.0","20810","high"
"98","safe","observe","49","blue-204","red-126","risky","safe","411","bandit-task","108","563238","0.0-104.0","20810","high"
"99","risky","claim","43","blue-83","red-146","risky","safe","480","bandit-task","109","566934","0.0-105.0","20810","high"
