"trial","choice","action","feedback","left_stimulus","right_stimulus","left_option","right_option","rt","trial_type","trial_index","time_elapsed","internal_node_id","participant","condition"
"0","safe","observe","51","blue-202","red-150","safe","risky","11954","bandit-task","7","199651","0.0-6.0","21391","high"
"1","risky","observe","28","blue-55","red-79","safe","risky","2632","bandit-task","8","210414","0.0-7.0","21391","high"
"2","safe","observe","51","blue-100","red-169","safe","risky","1483","bandit-task","9","220024","0.0-8.0","21391","high"
"3","safe","observe","49","blue-22","red-196","safe","risky","1601","bandit-task","10","231038","0.0-9.0","21391","high"
"4","safe","claim","49","blue-164","red-49","safe","risky","1510","bandit-task","11","236966","0.0-10.0","21391","high"
"5","safe","claim","52","blue-187","red-192","safe","risky","1288","bandit-task","12","242632","0.0-11.0","21391","high"
"6","risky","claim","71","blue-26","red-87","safe","risky","746","bandit-task","13","248870","0.0-12.0","21391","high"
"7","risky","observe","58","blue-8","red-148","safe","risky","1168","bandit-task","14","256838","0.0-13.0","21391","high"
"8","risky","observe","73","blue-125","red-117","safe","risky","1422","bandit-task","15","266702","0.0-14.0","21391","high"
"9","risky","claim","41","blue-59","red-69","safe","risky","1048","bandit-task","16","272353","0.0-15.0","21391","high"
"10","safe","claim","52","blue-132","red-131","safe","risky","1748","bandit-task","17","278471","0.0-16.0","21391","high"
"11","risky","claim","88","blue-41","red-111","safe","risky","3661","bandit-task","18","286904","0.0-17.0","21391","high"
"12","safe","claim","50","blue-124","red-99","safe","risky","6043","bandit-task","19","297472","0.0-18.0","21391","high"
"13","safe","claim","49","blue-1","red-177","safe","risky","938","bandit-task","20","302454","0.0-19.0","21391","high"
"14","risky","claim","29","blue-171","red-133","safe","risky","560","bandit-task","21","307031","0.0-20.0","21391","high"
"15","risky","observe","36","blue-167","red-129","safe","risky","1405","bandit-task","22","311982","0.0-21.0","21391","high"
"16","safe","claim","50","blue-161","red-136","safe","risky","1449","bandit-task","23","317771","0.0-22.0","21391","high"
"17","safe","claim","51","blue-50","red-138","safe","risky","828","bandit-task","24","324023","0.0-23.0","21391","high"
"18","risky","claim","49","blue-78","red-181","safe","risky","1344","bandit-task","25","332167","0.0-24.0","21391","high"
"19","risky","claim","59","blue-116","red-149","safe","risky","5514","bandit-task","26","341886","0.0-25.0","21391","high"
"20","safe","claim","51","blue-165","red-46","safe","risky","1161","bandit-task","27","346912","0.0-26.0","21391","high"
"21","safe","claim","49","blue-163","red-91","safe","risky","866","bandit-task","28","352276","0.0-27.0","21391","high"
"22","risky","claim","33","blue-97","red-38","safe","risky","551","bandit-task","29","357557","0.0-28.0","21391","high"
"23","risky","claim","32","blue-170","red-126","safe","risky","808","bandit-task","30","362311","0.0-29.0","21391","high"
"24","safe","claim","50","blue-180","red-195","safe","risky","585","bandit-task","31","366880","0.0-30.0","21391","high"
"25","risky","claim","75","blue-106","red-17","safe","risky","869","bandit-task","32","371285","0.0-31.0","21391","high"
"26","risky","claim","24","blue-174","red-135","safe","risky","874","bandit-task","33","375399","0.0-32.0","21391","high"
"27","safe","claim","50","blue-16","red-109","safe","risky","585","bandit-task","34","380097","0.0-33.0","21391","high"
"28","risky","claim","82","blue-76","red-190","safe","risky","535","bandit-task","35","384239","0.0-34.0","21391","high"
"29","safe","claim","48","blue-204","red-74","safe","risky","938","bandit-task","36","388900","0.0-35.0","21391","high"
"30","safe","claim","48","blue-139","red-185","safe","risky","4015","bandit-task","37","396773","0.0-36.0","21391","high"
"31","safe","claim","48","blue-27","red-118","safe","risky","1656","bandit-task","38","401901","0.0-37.0","21391","high"
"32","risky","claim","85","blue-65","red-194","safe","risky","1974","bandit-task","39","407740","0.0-38.0","21391","high"
"33","risky","claim","63","blue-3","red-162","safe","risky","1337","bandit-task","40","413241","0.0-39.0","21391","high"
"34","risky","claim","27","blue-123","red-84","safe","risky","1861","bandit-task","41","419328","0.0-40.0","21391","high"
"35","risky","claim","43","blue-183","red-112","safe","risky","1031","bandit-task","42","424258","0.0-41.0","21391","high"
"36","safe","claim","52","blue-7","red-151","safe","risky","713","bandit-task","43","428255","0.0-42.0","21391","high"
"37","risky","claim","68","blue-51","red-82","safe","risky","739","bandit-task","44","432524","0.0-43.0","21391","high"
"38","safe","claim","49","blue-36","red-145","safe","risky","592","bandit-task","45","436440","0.0-44.0","21391","high"
"39","safe","claim","50","blue-160","red-71","safe","risky","1218","bandit-task","46","443015","0.0-45.0","21391","high"
"40","risky","claim","27","blue-153","red-25","safe","risky","734","bandit-task","47","447374","0.0-46.0","21391","high"
"41","safe","claim","51","blue-23","red-198","safe","risky","1425","bandit-task","48","460860","0.0-47.0","21391","high"
"42","risky","observe","57","blue-114","red-68","safe","risky","1072","bandit-task","49","467676","0.0-48.0","21391","high"
"43","risky","claim","75","blue-54","red-182","safe","risky","1263","bandit-task","50","477285","0.0-49.0","21391","high"
"44","safe","claim","51","blue-200","red-178","safe","risky","1048","bandit-task","51","482837","0.0-50.0","21391","high"
"45","safe","claim","50","blue-197","red-86","safe","risky","1309","bandit-task","52","488216","0.0-51.0","21391","high"
"46","risky","claim","61","blue-52","red-105","safe","risky","1059","bandit-task","53","492855","0.0-52.0","21391","high"
"47","safe","claim","51","blue-34","red-13","safe","risky","873","bandit-task","54","499001","0.0-53.0","21391","high"
"48","risky","claim","72","blue-56","red-20","safe","risky","1444","bandit-task","55","507198","0.0-54.0","21391","high"
"49","risky","claim","75","blue-143","red-155","safe","risky","2501","bandit-task","56","514342","0.0-55.0","21391","high"
"50","safe","claim","50","blue-28","red-80","safe","risky","2264","bandit-task","57","523823","0.0-56.0","21391","high"
"51","safe","claim","49","blue-18","red-141","safe","risky","857","bandit-task","58","529908","0.0-57.0","21391","high"
"52","risky","claim","55","blue-113","red-104","safe","risky","945","bandit-task","59","535803","0.0-58.0","21391","high"
"53","risky","claim","69","blue-175","red-94","safe","risky","1003","bandit-task","60","542445","0.0-59.0","21391","high"
"54","safe","claim","51","blue-188","red-9","safe","risky","850","bandit-task","61","549261","0.0-60.0","21391","high"
"55","risky","claim","71","blue-115","red-70","safe","risky","850","bandit-task","62","555997","0.0-61.0","21391","high"
"56","risky","claim","32","blue-60","red-75","safe","risky","2421","bandit-task","63","562480","0.0-62.0","21391","high"
"57","safe","claim","52","blue-64","red-85","safe","risky","1329","bandit-task","64","575815","0.0-63.0","21391","high"
"58","risky","claim","60","blue-88","red-122","safe","risky","753","bandit-task","65","586182","0.0-64.0","21391","high"
"59","risky","claim","36","blue-137","red-157","safe","risky","1408","bandit-task","66","597420","0.0-65.0","21391","high"
"60","safe","claim","50","blue-173","red-156","safe","risky","712","bandit-task","67","603207","0.0-66.0","21391","high"
"61","risky","claim","55","blue-53","red-186","safe","risky","704","bandit-task","68","607516","0.0-67.0","21391","high"
"62","safe","claim","51","blue-110","red-179","safe","risky","862","bandit-task","69","619218","0.0-68.0","21391","high"
"63","safe","claim","49","blue-72","red-142","safe","risky","1769","bandit-task","70","630235","0.0-69.0","21391","high"
"64","safe","claim","49","blue-107","red-42","safe","risky","727","bandit-task","71","636233","0.0-70.0","21391","high"
"65","risky","claim","66","blue-130","red-103","safe","risky","695","bandit-task","72","643374","0.0-71.0","21391","high"
"66","safe","claim","50","blue-119","red-77","safe","risky","820","bandit-task","73","648817","0.0-72.0","21391","high"
"67","risky","claim","73","blue-83","red-6","safe","risky","731","bandit-task","74","656923","0.0-73.0","21391","high"
"68","safe","claim","49","blue-199","red-44","safe","risky","1129","bandit-task","75","667066","0.0-74.0","21391","high"
"69","safe","claim","50","blue-193","red-33","safe","risky","1948","bandit-task","76","673677","0.0-75.0","21391","high"
"70","risky","claim","81","blue-93","red-31","safe","risky","825","bandit-task","77","678353","0.0-76.0","21391","high"
"71","safe","claim","51","blue-67","red-92","safe","risky","874","bandit-task","78","685007","0.0-77.0","21391","high"
"72","safe","claim","51","blue-62","red-191","safe","risky","1027","bandit-task","79","693097","0.0-78.0","21391","high"
"73","risky","claim","58","blue-184","red-168","safe","risky","2103","bandit-task","80","705730","0.0-79.0","21391","high"
"74","safe","claim","50","blue-19","red-159","safe","risky","655","bandit-task","81","712425","0.0-80.0","21391","high"
"75","risky","claim","40","blue-48","red-120","safe","risky","972","bandit-task","82","719146","0.0-81.0","21391","high"
"76","risky","claim","71","blue-66","red-32","safe","risky","799","bandit-task","83","740023","0.0-82.0","21391","high"
"77","safe","claim","51","blue-172","red-152","safe","risky","816","bandit-task","84","744821","0.0-83.0","21391","high"
"78","risky","claim","30","blue-96","red-154","safe","risky","545","bandit-task","85","750267","0.0-84.0","21391","high"
"79","safe","claim","51","blue-43","red-140","safe","risky","601","bandit-task","86","754750","0.0-85.0","21391","high"
"80","risky","claim","35","blue-15","red-61","safe","risky","518","bandit-task","87","758335","0.0-86.0","21391","high"
"81","safe","claim","50","blue-81","red-146","safe","risky","1128","bandit-task","88","764932","0.0-87.0","21391","high"
"82","risky","claim","79","blue-11","red-10","safe","risky","862","bandit-task","89","772265","0.0-88.0","21391","high"
"83","safe","claim","49","blue-24","red-40","safe","risky","728","bandit-task","90","776344","0.0-89.0","21391","high"
"84","risky","claim","74","blue-166","red-45","safe","risky","578","bandit-task","91","781284","0.0-90.0","21391","high"
"85","safe","claim","51","blue-35","red-12","safe","risky","1147","bandit-task","92","788639","0.0-91.0","21391","high"
"86","risky","claim","78","blue-39","red-134","safe","risky","760","bandit-task","93","794985","0.0-92.0","21391","high"
"87","risky","claim","33","blue-201","red-14","safe","risky","647","bandit-task","94","801137","0.0-93.0","21391","high"
"88","risky","claim","71","blue-57","red-58","safe","risky","914","bandit-task","95","807408","0.0-94.0","21391","high"
"89","safe","claim","50","blue-144","red-30","safe","risky","1206","bandit-task","96","813816","0.0-95.0","21391","high"
"90","safe","claim","49","blue-203","red-21","safe","risky","988","bandit-task","97","823623","0.0-96.0","21391","high"
"91","risky","claim","28","blue-102","red-189","safe","risky","975","bandit-task","98","832223","0.0-97.0","21391","high"
"92","risky","claim","64","blue-63","red-73","safe","risky","12431","bandit-task","99","861904","0.0-98.0","21391","high"
"93","safe","claim","50","blue-121","red-4","safe","risky","721","bandit-task","100","866732","0.0-99.0","21391","high"
"94","safe","claim","52","blue-101","red-5","safe","risky","913","bandit-task","101","871049","0.0-100.0","21391","high"
"95","safe","claim","51","blue-95","red-158","safe","risky","2065","bandit-task","102","879946","0.0-101.0","21391","high"
"96","risky","claim","32","blue-127","red-29","safe","risky","910","bandit-task","103","884892","0.0-102.0","21391","high"
"97","risky","claim","74","blue-47","red-90","safe","risky","1248","bandit-task","104","891381","0.0-103.0","21391","high"
"98","safe","claim","49","blue-147","red-128","safe","risky","1096","bandit-task","105","904149","0.0-104.0","21391","high"
"99","risky","claim","69","blue-98","red-37","safe","risky","1478","bandit-task","106","909355","0.0-105.0","21391","high"
