"trial","choice","action","feedback","left_stimulus","right_stimulus","left_option","right_option","rt","trial_type","trial_index","time_elapsed","internal_node_id","participant","condition"
"0","safe","claim","49","blue-108","red-46","safe","risky","1912","bandit-task","7","416221","0.0-6.0","20428","high"
"1","safe","observe","51","blue-144","red-74","safe","risky","2037","bandit-task","8","422141","0.0-7.0","20428","high"
"2","safe","observe","49","blue-25","red-193","safe","risky","14519","bandit-task","9","445184","0.0-8.0","20428","high"
"3","safe","observe","49","blue-3","red-10","safe","risky","943","bandit-task","10","451135","0.0-9.0","20428","high"
"4","safe","observe","51","blue-38","red-175","safe","risky","1475","bandit-task","11","462829","0.0-10.0","20428","high"
"5","risky","claim","54","blue-140","red-124","safe","risky","1934","bandit-task","12","468710","0.0-11.0","20428","high"
"6","risky","observe","51","blue-8","red-128","safe","risky","1570","bandit-task","13","478787","0.0-12.0","20428","high"
"7","safe","observe","50","blue-73","red-138","safe","risky","2131","bandit-task","14","484343","0.0-13.0","20428","high"
"8","risky","observe","72","blue-172","red-149","safe","risky","1057","bandit-task","15","494278","0.0-14.0","20428","high"
"9","safe","observe","50","blue-2","red-77","safe","risky","3949","bandit-task","16","503083","0.0-15.0","20428","high"
"10","risky","observe","30","blue-190","red-60","safe","risky","1349","bandit-task","17","510566","0.0-16.0","20428","high"
"11","risky","claim","72","blue-23","red-195","safe","risky","2013","bandit-task","18","516280","0.0-17.0","20428","high"
"12","safe","observe","49","blue-30","red-123","safe","risky","2463","bandit-task","19","530171","0.0-18.0","20428","high"
"13","safe","observe","50","blue-48","red-42","safe","risky","3578","bandit-task","20","537786","0.0-19.0","20428","high"
"14","risky","claim","18","blue-119","red-11","safe","risky","1976","bandit-task","21","543903","0.0-20.0","20428","high"
"15","risky","claim","82","blue-13","red-177","safe","risky","1310","bandit-task","22","548789","0.0-21.0","20428","high"
"16","safe","observe","50","blue-79","red-182","safe","risky","5537","bandit-task","23","557489","0.0-22.0","20428","high"
"17","safe","observe","49","blue-57","red-165","safe","risky","993","bandit-task","24","561542","0.0-23.0","20428","high"
"18","risky","observe","54","blue-96","red-200","safe","risky","695","bandit-task","25","565205","0.0-24.0","20428","high"
"19","risky","claim","87","blue-50","red-145","safe","risky","776","bandit-task","26","569558","0.0-25.0","20428","high"
"20","risky","claim","18","blue-67","red-142","safe","risky","1183","bandit-task","27","575858","0.0-26.0","20428","high"
"21","risky","observe","29","blue-62","red-7","safe","risky","882","bandit-task","28","580229","0.0-27.0","20428","high"
"22","safe","claim","49","blue-178","red-31","safe","risky","1450","bandit-task","29","585444","0.0-28.0","20428","high"
"23","risky","observe","77","blue-19","red-155","safe","risky","3199","bandit-task","30","592851","0.0-29.0","20428","high"
"24","risky","claim","19","blue-116","red-106","safe","risky","1292","bandit-task","31","597642","0.0-30.0","20428","high"
"25","safe","observe","49","blue-27","red-64","safe","risky","895","bandit-task","32","601561","0.0-31.0","20428","high"
"26","risky","observe","21","blue-103","red-146","safe","risky","866","bandit-task","33","605505","0.0-32.0","20428","high"
"27","risky","observe","75","blue-183","red-94","safe","risky","755","bandit-task","34","609529","0.0-33.0","20428","high"
"28","safe","observe","51","blue-29","red-61","safe","risky","1200","bandit-task","35","613994","0.0-34.0","20428","high"
"29","risky","claim","66","blue-109","red-76","safe","risky","1609","bandit-task","36","618698","0.0-35.0","20428","high"
"30","safe","observe","51","blue-112","red-9","safe","risky","2375","bandit-task","37","623992","0.0-36.0","20428","high"
"31","risky","observe","26","blue-111","red-59","safe","risky","914","bandit-task","38","628260","0.0-37.0","20428","high"
"32","safe","claim","51","blue-84","red-32","safe","risky","2583","bandit-task","39","634363","0.0-38.0","20428","high"
"33","risky","observe","43","blue-202","red-162","safe","risky","2518","bandit-task","40","640505","0.0-39.0","20428","high"
"34","risky","observe","14","blue-179","red-199","safe","risky","1785","bandit-task","41","645239","0.0-40.0","20428","high"
"35","safe","claim","50","blue-100","red-192","safe","risky","556","bandit-task","42","658622","0.0-41.0","20428","high"
"36","safe","claim","51","blue-78","red-14","safe","risky","1285","bandit-task","43","663412","0.0-42.0","20428","high"
"37","risky","observe","77","blue-176","red-169","safe","risky","888","bandit-task","44","667324","0.0-43.0","20428","high"
"38","safe","claim","49","blue-181","red-65","safe","risky","724","bandit-task","45","671425","0.0-44.0","20428","high"
"39","safe","claim","49","blue-4","red-129","safe","risky","747","bandit-task","46","675164","0.0-45.0","20428","high"
"40","safe","observe","52","blue-82","red-203","safe","risky","882","bandit-task","47","679045","0.0-46.0","20428","high"
"41","safe","claim","50","blue-126","red-51","safe","risky","929","bandit-task","48","683060","0.0-47.0","20428","high"
"42","safe","claim","50","blue-55","red-197","safe","risky","825","bandit-task","49","686766","0.0-48.0","20428","high"
"43","safe","claim","49","blue-56","red-154","safe","risky","778","bandit-task","50","691208","0.0-49.0","20428","high"
"44","safe","observe","50","blue-113","red-5","safe","risky","810","bandit-task","51","694973","0.0-50.0","20428","high"
"45","safe","claim","50","blue-180","red-80","safe","risky","1127","bandit-task","52","700337","0.0-51.0","20428","high"
"46","risky","claim","70","blue-6","red-135","safe","risky","1190","bandit-task","53","704764","0.0-52.0","20428","high"
"47","risky","claim","68","blue-153","red-187","safe","risky","761","bandit-task","54","708683","0.0-53.0","20428","high"
"48","safe","claim","49","blue-131","red-147","safe","risky","700","bandit-task","55","712342","0.0-54.0","20428","high"
"49","safe","claim","50","blue-16","red-58","safe","risky","1031","bandit-task","56","716452","0.0-55.0","20428","high"
"50","risky","claim","21","blue-26","red-34","safe","risky","752","bandit-task","57","720301","0.0-56.0","20428","high"
"51","safe","claim","50","blue-114","red-201","safe","risky","991","bandit-task","58","724467","0.0-57.0","20428","high"
"52","risky","observe","84","blue-136","red-120","safe","risky","2152","bandit-task","59","730014","0.0-58.0","20428","high"
"53","safe","observe","49","blue-163","red-86","safe","risky","1720","bandit-task","60","735507","0.0-59.0","20428","high"
"54","risky","observe","37","blue-168","red-166","safe","risky","999","bandit-task","61","739783","0.0-60.0","20428","high"
"55","risky","observe","69","blue-117","red-121","safe","risky","579","bandit-task","62","743348","0.0-61.0","20428","high"
"56","risky","observe","36","blue-20","red-39","safe","risky","816","bandit-task","63","747053","0.0-62.0","20428","high"
"57","risky","observe","36","blue-99","red-33","safe","risky","786","bandit-task","64","750848","0.0-63.0","20428","high"
"58","risky","claim","83","blue-43","red-87","safe","risky","840","bandit-task","65","754879","0.0-64.0","20428","high"
"59","safe","claim","50","blue-12","red-89","safe","risky","835","bandit-task","66","758594","0.0-65.0","20428","high"
"60","safe","claim","49","blue-122","red-40","safe","risky","921","bandit-task","67","762466","0.0-66.0","20428","high"
"61","safe","claim","50","blue-97","red-47","safe","risky","785","bandit-task","68","766315","0.0-67.0","20428","high"
"62","risky","claim","13","blue-110","red-91","safe","risky","1336","bandit-task","69","770670","0.0-68.0","20428","high"
"63","risky","claim","42","blue-35","red-141","safe","risky","1298","bandit-task","70","775515","0.0-69.0","20428","high"
"64","risky","claim","58","blue-132","red-81","safe","risky","1123","bandit-task","71","781507","0.0-70.0","20428","high"
"65","safe","claim","50","blue-160","red-45","safe","risky","1597","bandit-task","72","786104","0.0-71.0","20428","high"
"66","risky","claim","65","blue-139","red-52","safe","risky","849","bandit-task","73","792303","0.0-72.0","20428","high"
"67","risky","claim","62","blue-17","red-189","safe","risky","998","bandit-task","74","796950","0.0-73.0","20428","high"
"68","risky","claim","41","blue-70","red-130","safe","risky","731","bandit-task","75","801613","0.0-74.0","20428","high"
"69","safe","claim","50","blue-101","red-92","safe","risky","658","bandit-task","76","805408","0.0-75.0","20428","high"
"70","safe","claim","51","blue-95","red-133","safe","risky","642","bandit-task","77","809115","0.0-76.0","20428","high"
"71","safe","claim","48","blue-102","red-186","safe","risky","1092","bandit-task","78","813398","0.0-77.0","20428","high"
"72","safe","claim","51","blue-150","red-158","safe","risky","3156","bandit-task","79","820418","0.0-78.0","20428","high"
"73","safe","claim","50","blue-49","red-54","safe","risky","736","bandit-task","80","825278","0.0-79.0","20428","high"
"74","risky","claim","85","blue-156","red-105","safe","risky","808","bandit-task","81","829112","0.0-80.0","20428","high"
"75","safe","claim","49","blue-167","red-184","safe","risky","705","bandit-task","82","833016","0.0-81.0","20428","high"
"76","safe","claim","50","blue-143","red-152","safe","risky","824","bandit-task","83","836968","0.0-82.0","20428","high"
"77","risky","claim","25","blue-185","red-28","safe","risky","784","bandit-task","84","841537","0.0-83.0","20428","high"
"78","risky","claim","51","blue-157","red-68","safe","risky","895","bandit-task","85","845552","0.0-84.0","20428","high"
"79","risky","claim","77","blue-71","red-18","safe","risky","760","bandit-task","86","849370","0.0-85.0","20428","high"
"80","safe","claim","51","blue-118","red-151","safe","risky","743","bandit-task","87","853298","0.0-86.0","20428","high"
"81","safe","claim","50","blue-134","red-204","safe","risky","689","bandit-task","88","857052","0.0-87.0","20428","high"
"82","safe","claim","50","blue-15","red-159","safe","risky","902","bandit-task","89","861179","0.0-88.0","20428","high"
"83","risky","observe","28","blue-53","red-24","safe","risky","1439","bandit-task","90","865818","0.0-89.0","20428","high"
"84","safe","claim","49","blue-22","red-170","safe","risky","743","bandit-task","91","869872","0.0-90.0","20428","high"
"85","risky","claim","87","blue-85","red-173","safe","risky","760","bandit-task","92","873769","0.0-91.0","20428","high"
"86","safe","claim","48","blue-88","red-107","safe","risky","973","bandit-task","93","877839","0.0-92.0","20428","high"
"87","safe","claim","51","blue-161","red-75","safe","risky","696","bandit-task","94","881815","0.0-93.0","20428","high"
"88","safe","claim","48","blue-36","red-191","safe","risky","609","bandit-task","95","886122","0.0-94.0","20428","high"
"89","risky","observe","60","blue-83","red-41","safe","risky","768","bandit-task","96","890034","0.0-95.0","20428","high"
"90","safe","claim","51","blue-127","red-194","safe","risky","587","bandit-task","97","893828","0.0-96.0","20428","high"
"91","safe","claim","50","blue-63","red-198","safe","risky","704","bandit-task","98","897685","0.0-97.0","20428","high"
"92","safe","claim","50","blue-93","red-90","safe","risky","706","bandit-task","99","901393","0.0-98.0","20428","high"
"93","safe","claim","52","blue-1","red-69","safe","risky","1051","bandit-task","100","905367","0.0-99.0","20428","high"
"94","safe","claim","51","blue-44","red-174","safe","risky","713","bandit-task","101","909035","0.0-100.0","20428","high"
"95","safe","claim","51","blue-188","red-104","safe","risky","824","bandit-task","102","913777","0.0-101.0","20428","high"
"96","safe","claim","49","blue-66","red-21","safe","risky","799","bandit-task","103","918534","0.0-102.0","20428","high"
"97","risky","claim","38","blue-115","red-37","safe","risky","2072","bandit-task","104","924257","0.0-103.0","20428","high"
"98","safe","claim","50","blue-171","red-98","safe","risky","1692","bandit-task","105","929259","0.0-104.0","20428","high"
"99","risky","claim","65","blue-137","red-164","safe","risky","1463","bandit-task","106","934210","0.0-105.0","20428","high"
