"trial","choice","action","feedback","left_stimulus","right_stimulus","left_option","right_option","rt","trial_type","trial_index","time_elapsed","internal_node_id","participant","condition"
"0","safe","observe","50","blue-110","red-43","safe","risky","3500","bandit-task","10","500964","0.0-6.0","20831","high"
"1","safe","claim","51","blue-62","red-14","safe","risky","1534","bandit-task","11","507815","0.0-7.0","20831","high"
"2","risky","claim","29","blue-21","red-32","safe","risky","1127","bandit-task","12","514893","0.0-8.0","20831","high"
"3","risky","claim","22","blue-164","red-157","safe","risky","1584","bandit-task","13","521920","0.0-9.0","20831","high"
"4","risky","claim","46","blue-134","red-167","safe","risky","1584","bandit-task","14","527628","0.0-10.0","20831","high"
"5","risky","claim","31","blue-76","red-121","safe","risky","1780","bandit-task","15","533458","0.0-11.0","20831","high"
"6","safe","claim","50","blue-16","red-179","safe","risky","846","bandit-task","16","538824","0.0-12.0","20831","high"
"7","risky","claim","64","blue-137","red-196","safe","risky","766","bandit-task","17","543078","0.0-13.0","20831","high"
"8","safe","claim","50","blue-194","red-42","safe","risky","797","bandit-task","18","548308","0.0-14.0","20831","high"
"9","risky","claim","81","blue-160","red-175","safe","risky","658","bandit-task","19","553181","0.0-15.0","20831","high"
"10","safe","claim","49","blue-139","red-150","safe","risky","1293","bandit-task","20","559768","0.0-16.0","20831","high"
"11","risky","claim","67","blue-158","red-161","safe","risky","664","bandit-task","21","565126","0.0-17.0","20831","high"
"12","risky","claim","69","blue-173","red-195","safe","risky","1294","bandit-task","22","571261","0.0-18.0","20831","high"
"13","risky","claim","37","blue-11","red-180","safe","risky","1234","bandit-task","23","576051","0.0-19.0","20831","high"
"14","safe","claim","50","blue-22","red-166","safe","risky","1250","bandit-task","24","582415","0.0-20.0","20831","high"
"15","safe","claim","51","blue-51","red-86","safe","risky","1120","bandit-task","25","588167","0.0-21.0","20831","high"
"16","risky","claim","35","blue-27","red-64","safe","risky","725","bandit-task","26","592860","0.0-22.0","20831","high"
"17","risky","claim","20","blue-97","red-71","safe","risky","895","bandit-task","27","597564","0.0-23.0","20831","high"
"18","safe","claim","50","blue-119","red-41","safe","risky","777","bandit-task","28","602195","0.0-24.0","20831","high"
"19","risky","claim","29","blue-189","red-176","safe","risky","702","bandit-task","29","606857","0.0-25.0","20831","high"
"20","risky","claim","44","blue-203","red-111","safe","risky","1150","bandit-task","30","612337","0.0-26.0","20831","high"
"21","safe","claim","48","blue-107","red-94","safe","risky","733","bandit-task","31","617225","0.0-27.0","20831","high"
"22","risky","claim","35","blue-168","red-23","safe","risky","1042","bandit-task","32","622082","0.0-28.0","20831","high"
"23","risky","claim","26","blue-30","red-78","safe","risky","1178","bandit-task","33","628182","0.0-29.0","20831","high"
"24","safe","claim","50","blue-142","red-201","safe","risky","1957","bandit-task","34","633589","0.0-30.0","20831","high"
"25","safe","claim","50","blue-93","red-12","safe","risky","1182","bandit-task","35","639481","0.0-31.0","20831","high"
"26","risky","claim","34","blue-145","red-54","safe","risky","774","bandit-task","36","644158","0.0-32.0","20831","high"
"27","risky","claim","25","blue-28","red-35","safe","risky","1216","bandit-task","37","653756","0.0-33.0","20831","high"
"28","safe","claim","50","blue-37","red-1","safe","risky","742","bandit-task","38","658233","0.0-34.0","20831","high"
"29","risky","claim","45","blue-144","red-89","safe","risky","638","bandit-task","39","663302","0.0-35.0","20831","high"
"30","safe","claim","51","blue-171","red-190","safe","risky","660","bandit-task","40","667590","0.0-36.0","20831","high"
"31","risky","claim","72","blue-29","red-45","safe","risky","1532","bandit-task","41","674595","0.0-37.0","20831","high"
"32","risky","claim","34","blue-193","red-125","safe","risky","1263","bandit-task","42","680256","0.0-38.0","20831","high"
"33","safe","claim","50","blue-138","red-149","safe","risky","616","bandit-task","43","685165","0.0-39.0","20831","high"
"34","risky","claim","63","blue-96","red-46","safe","risky","647","bandit-task","44","690015","0.0-40.0","20831","high"
"35","safe","claim","51","blue-7","red-162","safe","risky","672","bandit-task","45","696139","0.0-41.0","20831","high"
"36","risky","claim","35","blue-73","red-72","safe","risky","964","bandit-task","46","701247","0.0-42.0","20831","high"
"37","safe","claim","51","blue-17","red-92","safe","risky","1076","bandit-task","47","706673","0.0-43.0","20831","high"
"38","risky","claim","32","blue-63","red-24","safe","risky","1414","bandit-task","48","713080","0.0-44.0","20831","high"
"39","safe","observe","49","blue-154","red-136","safe","risky","540","bandit-task","49","717761","0.0-45.0","20831","high"
"40","risky","observe","22","blue-68","red-129","safe","risky","626","bandit-task","50","722863","0.0-46.0","20831","high"
"41","safe","claim","48","blue-77","red-182","safe","risky","620","bandit-task","51","727495","0.0-47.0","20831","high"
"42","risky","claim","53","blue-165","red-114","safe","risky","670","bandit-task","52","732572","0.0-48.0","20831","high"
"43","safe","claim","51","blue-10","red-126","safe","risky","548","bandit-task","53","737125","0.0-49.0","20831","high"
"44","risky","claim","15","blue-108","red-84","safe","risky","668","bandit-task","54","741395","0.0-50.0","20831","high"
"45","safe","claim","50","blue-3","red-60","safe","risky","739","bandit-task","55","748341","0.0-51.0","20831","high"
"46","risky","claim","21","blue-191","red-118","safe","risky","750","bandit-task","56","752927","0.0-52.0","20831","high"
"47","safe","claim","49","blue-8","red-49","safe","risky","797","bandit-task","57","759041","0.0-53.0","20831","high"
"48","risky","claim","38","blue-18","red-55","safe","risky","600","bandit-task","58","763714","0.0-54.0","20831","high"
"49","safe","claim","50","blue-151","red-159","safe","risky","612","bandit-task","59","770538","0.0-55.0","20831","high"
"50","risky","claim","61","blue-91","red-44","safe","risky","837","bandit-task","60","776518","0.0-56.0","20831","high"
"51","safe","claim","50","blue-15","red-120","safe","risky","987","bandit-task","61","782294","0.0-57.0","20831","high"
"52","risky","claim","23","blue-184","red-81","safe","risky","614","bandit-task","62","787454","0.0-58.0","20831","high"
"53","risky","claim","41","blue-33","red-79","safe","risky","570","bandit-task","63","791565","0.0-59.0","20831","high"
"54","safe","claim","49","blue-83","red-58","safe","risky","941","bandit-task","64","796238","0.0-60.0","20831","high"
"55","risky","claim","35","blue-19","red-102","safe","risky","556","bandit-task","65","800191","0.0-61.0","20831","high"
"56","risky","claim","74","blue-170","red-69","safe","risky","685","bandit-task","66","804780","0.0-62.0","20831","high"
"57","risky","claim","78","blue-20","red-140","safe","risky","589","bandit-task","67","809056","0.0-63.0","20831","high"
"58","safe","claim","50","blue-199","red-141","safe","risky","580","bandit-task","68","813213","0.0-64.0","20831","high"
"59","risky","claim","37","blue-103","red-155","safe","risky","611","bandit-task","69","817254","0.0-65.0","20831","high"
"60","safe","claim","50","blue-127","red-26","safe","risky","852","bandit-task","70","821651","0.0-66.0","20831","high"
"61","risky","claim","90","blue-99","red-187","safe","risky","588","bandit-task","71","826639","0.0-67.0","20831","high"
"62","safe","claim","52","blue-53","red-132","safe","risky","548","bandit-task","72","830362","0.0-68.0","20831","high"
"63","risky","claim","20","blue-169","red-109","safe","risky","481","bandit-task","73","834322","0.0-69.0","20831","high"
"64","risky","claim","63","blue-31","red-133","safe","risky","588","bandit-task","74","838692","0.0-70.0","20831","high"
"65","safe","claim","52","blue-185","red-38","safe","risky","596","bandit-task","75","843361","0.0-71.0","20831","high"
"66","risky","claim","68","blue-146","red-105","safe","risky","524","bandit-task","76","847428","0.0-72.0","20831","high"
"67","safe","claim","49","blue-174","red-5","safe","risky","548","bandit-task","77","851727","0.0-73.0","20831","high"
"68","risky","claim","18","blue-204","red-202","safe","risky","523","bandit-task","78","856083","0.0-74.0","20831","high"
"69","safe","claim","50","blue-70","red-2","safe","risky","549","bandit-task","79","860532","0.0-75.0","20831","high"
"70","risky","claim","65","blue-87","red-106","safe","risky","723","bandit-task","80","865609","0.0-76.0","20831","high"
"71","safe","claim","49","blue-152","red-50","safe","risky","645","bandit-task","81","871451","0.0-77.0","20831","high"
"72","risky","claim","48","blue-183","red-143","safe","risky","811","bandit-task","82","877361","0.0-78.0","20831","high"
"73","risky","claim","19","blue-40","red-122","safe","risky","1045","bandit-task","83","882607","0.0-79.0","20831","high"
"74","risky","claim","18","blue-116","red-95","safe","risky","592","bandit-task","84","886763","0.0-80.0","20831","high"
"75","risky","claim","70","blue-52","red-115","safe","risky","571","bandit-task","85","890917","0.0-81.0","20831","high"
"76","risky","claim","41","blue-130","red-177","safe","risky","1096","bandit-task","86","895596","0.0-82.0","20831","high"
"77","safe","claim","49","blue-61","red-57","safe","risky","500","bandit-task","87","899764","0.0-83.0","20831","high"
"78","risky","claim","12","blue-131","red-82","safe","risky","511","bandit-task","88","903758","0.0-84.0","20831","high"
"79","safe","claim","51","blue-39","red-101","safe","risky","438","bandit-task","89","908024","0.0-85.0","20831","high"
"80","risky","claim","84","blue-163","red-100","safe","risky","458","bandit-task","90","913185","0.0-86.0","20831","high"
"81","safe","claim","50","blue-200","red-198","safe","risky","469","bandit-task","91","917071","0.0-87.0","20831","high"
"82","risky","claim","66","blue-181","red-80","safe","risky","761","bandit-task","92","922410","0.0-88.0","20831","high"
"83","risky","claim","46","blue-98","red-75","safe","risky","869","bandit-task","93","926488","0.0-89.0","20831","high"
"84","safe","claim","51","blue-25","red-156","safe","risky","637","bandit-task","94","930724","0.0-90.0","20831","high"
"85","risky","claim","39","blue-74","red-4","safe","risky","643","bandit-task","95","934642","0.0-91.0","20831","high"
"86","safe","claim","50","blue-197","red-117","safe","risky","594","bandit-task","96","939276","0.0-92.0","20831","high"
"87","risky","claim","51","blue-67","red-56","safe","risky","558","bandit-task","97","944659","0.0-93.0","20831","high"
"88","safe","claim","50","blue-13","red-65","safe","risky","500","bandit-task","98","948618","0.0-94.0","20831","high"
"89","risky","claim","18","blue-147","red-128","safe","risky","708","bandit-task","99","952953","0.0-95.0","20831","high"
"90","safe","claim","50","blue-153","red-135","safe","risky","515","bandit-task","100","957489","0.0-96.0","20831","high"
"91","risky","claim","60","blue-90","red-59","safe","risky","528","bandit-task","101","961692","0.0-97.0","20831","high"
"92","safe","claim","51","blue-192","red-148","safe","risky","571","bandit-task","102","965819","0.0-98.0","20831","high"
"93","safe","claim","50","blue-34","red-47","safe","risky","875","bandit-task","103","970023","0.0-99.0","20831","high"
"94","safe","claim","49","blue-104","red-172","safe","risky","588","bandit-task","104","974108","0.0-100.0","20831","high"
"95","safe","claim","50","blue-123","red-85","safe","risky","812","bandit-task","105","980148","0.0-101.0","20831","high"
"96","risky","claim","32","blue-124","red-112","safe","risky","482","bandit-task","106","985650","0.0-102.0","20831","high"
"97","safe","claim","52","blue-48","red-188","safe","risky","500","bandit-task","107","989710","0.0-103.0","20831","high"
"98","risky","claim","32","blue-178","red-9","safe","risky","653","bandit-task","108","993730","0.0-104.0","20831","high"
"99","safe","claim","51","blue-36","red-113","safe","risky","500","bandit-task","109","998374","0.0-105.0","20831","high"
