"trial","choice","action","feedback","left_stimulus","right_stimulus","left_option","right_option","rt","trial_type","trial_index","time_elapsed","internal_node_id","participant","condition"
"0","risky","observe","36","red-134","blue-78","risky","safe","9241","bandit-task","7","465103","0.0-6.0","20591","high"
"1","safe","observe","49","red-60","blue-81","risky","safe","2770","bandit-task","8","472738","0.0-7.0","20591","high"
"2","risky","observe","85","red-187","blue-192","risky","safe","706","bandit-task","9","477357","0.0-8.0","20591","high"
"3","safe","claim","50","red-52","blue-37","risky","safe","578","bandit-task","10","482031","0.0-9.0","20591","high"
"4","safe","claim","48","red-44","blue-157","risky","safe","692","bandit-task","11","487820","0.0-10.0","20591","high"
"5","safe","claim","52","red-104","blue-137","risky","safe","822","bandit-task","12","492188","0.0-11.0","20591","high"
"6","safe","observe","51","red-85","blue-176","risky","safe","1046","bandit-task","13","496485","0.0-12.0","20591","high"
"7","risky","observe","33","red-175","blue-130","risky","safe","593","bandit-task","14","500929","0.0-13.0","20591","high"
"8","safe","claim","49","red-57","blue-63","risky","safe","783","bandit-task","15","505149","0.0-14.0","20591","high"
"9","safe","claim","48","red-5","blue-189","risky","safe","545","bandit-task","16","509198","0.0-15.0","20591","high"
"10","safe","claim","50","red-22","blue-154","risky","safe","650","bandit-task","17","513649","0.0-16.0","20591","high"
"11","safe","claim","49","red-20","blue-15","risky","safe","730","bandit-task","18","517849","0.0-17.0","20591","high"
"12","safe","claim","50","red-1","blue-75","risky","safe","1278","bandit-task","19","522605","0.0-18.0","20591","high"
"13","risky","observe","28","red-42","blue-74","risky","safe","1991","bandit-task","20","528034","0.0-19.0","20591","high"
"14","risky","observe","33","red-31","blue-36","risky","safe","1002","bandit-task","21","532574","0.0-20.0","20591","high"
"15","risky","observe","32","red-159","blue-89","risky","safe","1121","bandit-task","22","538103","0.0-21.0","20591","high"
"16","safe","claim","48","red-34","blue-139","risky","safe","1602","bandit-task","23","543476","0.0-22.0","20591","high"
"17","safe","claim","49","red-163","blue-158","risky","safe","464","bandit-task","24","547174","0.0-23.0","20591","high"
"18","safe","claim","51","red-118","blue-203","risky","safe","467","bandit-task","25","551242","0.0-24.0","20591","high"
"19","safe","claim","49","red-96","blue-108","risky","safe","436","bandit-task","26","555155","0.0-25.0","20591","high"
"20","risky","claim","15","red-83","blue-129","risky","safe","822","bandit-task","27","559076","0.0-26.0","20591","high"
"21","safe","claim","49","red-167","blue-185","risky","safe","829","bandit-task","28","563077","0.0-27.0","20591","high"
"22","risky","observe","20","red-70","blue-177","risky","safe","1823","bandit-task","29","568129","0.0-28.0","20591","high"
"23","safe","claim","49","red-172","blue-28","risky","safe","901","bandit-task","30","572443","0.0-29.0","20591","high"
"24","safe","claim","50","red-41","blue-9","risky","safe","605","bandit-task","31","576501","0.0-30.0","20591","high"
"25","safe","claim","50","red-97","blue-4","risky","safe","829","bandit-task","32","580872","0.0-31.0","20591","high"
"26","safe","claim","50","red-193","blue-151","risky","safe","787","bandit-task","33","585483","0.0-32.0","20591","high"
"27","safe","claim","50","red-105","blue-103","risky","safe","894","bandit-task","34","589909","0.0-33.0","20591","high"
"28","safe","claim","51","red-58","blue-117","risky","safe","528","bandit-task","35","593550","0.0-34.0","20591","high"
"29","safe","claim","50","red-112","blue-195","risky","safe","524","bandit-task","36","597529","0.0-35.0","20591","high"
"30","safe","claim","51","red-186","blue-66","risky","safe","1050","bandit-task","37","602275","0.0-36.0","20591","high"
"31","safe","claim","48","red-128","blue-178","risky","safe","652","bandit-task","38","606262","0.0-37.0","20591","high"
"32","safe","claim","50","red-7","blue-146","risky","safe","606","bandit-task","39","611105","0.0-38.0","20591","high"
"33","safe","claim","51","red-61","blue-102","risky","safe","465","bandit-task","40","615795","0.0-39.0","20591","high"
"34","safe","claim","51","red-88","blue-10","risky","safe","534","bandit-task","41","619709","0.0-40.0","20591","high"
"35","safe","claim","49","red-125","blue-148","risky","safe","618","bandit-task","42","623583","0.0-41.0","20591","high"
"36","safe","claim","51","red-169","blue-45","risky","safe","469","bandit-task","43","627312","0.0-42.0","20591","high"
"37","safe","claim","49","red-46","blue-62","risky","safe","444","bandit-task","44","631186","0.0-43.0","20591","high"
"38","safe","observe","51","red-64","blue-168","risky","safe","564","bandit-task","45","636302","0.0-44.0","20591","high"
"39","safe","claim","51","red-133","blue-149","risky","safe","550","bandit-task","46","640152","0.0-45.0","20591","high"
"40","safe","claim","50","red-202","blue-143","risky","safe","580","bandit-task","47","644260","0.0-46.0","20591","high"
"41","safe","claim","50","red-19","blue-153","risky","safe","505","bandit-task","48","647980","0.0-47.0","20591","high"
"42","safe","claim","51","red-2","blue-13","risky","safe","429","bandit-task","49","651550","0.0-48.0","20591","high"
"43","safe","claim","49","red-179","blue-90","risky","safe","708","bandit-task","50","655687","0.0-49.0","20591","high"
"44","safe","claim","50","red-141","blue-99","risky","safe","583","bandit-task","51","660580","0.0-50.0","20591","high"
"45","safe","claim","51","red-135","blue-201","risky","safe","539","bandit-task","52","664695","0.0-51.0","20591","high"
"46","safe","claim","50","red-144","blue-12","risky","safe","541","bandit-task","53","668417","0.0-52.0","20591","high"
"47","safe","claim","48","red-161","blue-6","risky","safe","715","bandit-task","54","672235","0.0-53.0","20591","high"
"48","safe","claim","49","red-53","blue-121","risky","safe","535","bandit-task","55","676190","0.0-54.0","20591","high"
"49","safe","claim","52","red-191","blue-80","risky","safe","525","bandit-task","56","679829","0.0-55.0","20591","high"
"50","safe","claim","49","red-65","blue-23","risky","safe","535","bandit-task","57","683702","0.0-56.0","20591","high"
"51","safe","claim","49","red-109","blue-77","risky","safe","563","bandit-task","58","687408","0.0-57.0","20591","high"
"52","safe","claim","49","red-173","blue-180","risky","safe","550","bandit-task","59","691235","0.0-58.0","20591","high"
"53","safe","claim","51","red-174","blue-26","risky","safe","1157","bandit-task","60","695510","0.0-59.0","20591","high"
"54","safe","claim","51","red-162","blue-29","risky","safe","450","bandit-task","61","699015","0.0-60.0","20591","high"
"55","safe","claim","51","red-150","blue-124","risky","safe","651","bandit-task","62","702839","0.0-61.0","20591","high"
"56","safe","claim","49","red-140","blue-145","risky","safe","451","bandit-task","63","706304","0.0-62.0","20591","high"
"57","safe","claim","50","red-32","blue-156","risky","safe","477","bandit-task","64","710259","0.0-63.0","20591","high"
"58","safe","claim","51","red-30","blue-114","risky","safe","497","bandit-task","65","713750","0.0-64.0","20591","high"
"59","safe","claim","50","red-115","blue-197","risky","safe","457","bandit-task","66","717415","0.0-65.0","20591","high"
"60","safe","claim","50","red-199","blue-194","risky","safe","436","bandit-task","67","720968","0.0-66.0","20591","high"
"61","safe","claim","50","red-93","blue-49","risky","safe","452","bandit-task","68","724410","0.0-67.0","20591","high"
"62","safe","claim","50","red-107","blue-79","risky","safe","506","bandit-task","69","728333","0.0-68.0","20591","high"
"63","safe","claim","50","red-110","blue-132","risky","safe","434","bandit-task","70","731707","0.0-69.0","20591","high"
"64","safe","claim","51","red-181","blue-18","risky","safe","443","bandit-task","71","735140","0.0-70.0","20591","high"
"65","safe","claim","49","red-123","blue-25","risky","safe","413","bandit-task","72","738545","0.0-71.0","20591","high"
"66","safe","claim","49","red-48","blue-166","risky","safe","529","bandit-task","73","742146","0.0-72.0","20591","high"
"67","safe","claim","52","red-55","blue-95","risky","safe","1378","bandit-task","74","746789","0.0-73.0","20591","high"
"68","safe","claim","51","red-21","blue-47","risky","safe","398","bandit-task","75","750438","0.0-74.0","20591","high"
"69","safe","claim","52","red-190","blue-56","risky","safe","542","bandit-task","76","754023","0.0-75.0","20591","high"
"70","safe","claim","49","red-38","blue-59","risky","safe","500","bandit-task","77","757923","0.0-76.0","20591","high"
"71","safe","claim","51","red-119","blue-200","risky","safe","835","bandit-task","78","761996","0.0-77.0","20591","high"
"72","safe","claim","48","red-3","blue-204","risky","safe","434","bandit-task","79","766007","0.0-78.0","20591","high"
"73","safe","claim","50","red-142","blue-126","risky","safe","394","bandit-task","80","769511","0.0-79.0","20591","high"
"74","safe","claim","49","red-84","blue-147","risky","safe","442","bandit-task","81","773738","0.0-80.0","20591","high"
"75","safe","claim","50","red-196","blue-86","risky","safe","602","bandit-task","82","777958","0.0-81.0","20591","high"
"76","safe","claim","47","red-8","blue-35","risky","safe","450","bandit-task","83","781582","0.0-82.0","20591","high"
"77","safe","claim","50","red-72","blue-40","risky","safe","387","bandit-task","84","785160","0.0-83.0","20591","high"
"78","safe","claim","51","red-164","blue-68","risky","safe","514","bandit-task","85","788889","0.0-84.0","20591","high"
"79","safe","claim","50","red-54","blue-160","risky","safe","420","bandit-task","86","792366","0.0-85.0","20591","high"
"80","safe","claim","50","red-106","blue-120","risky","safe","487","bandit-task","87","795713","0.0-86.0","20591","high"
"81","safe","claim","50","red-39","blue-50","risky","safe","451","bandit-task","88","799163","0.0-87.0","20591","high"
"82","safe","claim","50","red-155","blue-183","risky","safe","1061","bandit-task","89","803736","0.0-88.0","20591","high"
"83","safe","claim","50","red-113","blue-24","risky","safe","418","bandit-task","90","807114","0.0-89.0","20591","high"
"84","safe","claim","51","red-116","blue-69","risky","safe","406","bandit-task","91","810518","0.0-90.0","20591","high"
"85","safe","claim","51","red-198","blue-67","risky","safe","410","bandit-task","92","813991","0.0-91.0","20591","high"
"86","safe","claim","51","red-82","blue-122","risky","safe","501","bandit-task","93","817585","0.0-92.0","20591","high"
"87","safe","claim","50","red-100","blue-138","risky","safe","451","bandit-task","94","820922","0.0-93.0","20591","high"
"88","safe","claim","50","red-33","blue-171","risky","safe","390","bandit-task","95","824279","0.0-94.0","20591","high"
"89","safe","claim","50","red-43","blue-165","risky","safe","472","bandit-task","96","827751","0.0-95.0","20591","high"
"90","safe","claim","51","red-27","blue-87","risky","safe","343","bandit-task","97","831034","0.0-96.0","20591","high"
"91","safe","claim","50","red-131","blue-184","risky","safe","370","bandit-task","98","834187","0.0-97.0","20591","high"
"92","safe","claim","50","red-111","blue-136","risky","safe","386","bandit-task","99","837547","0.0-98.0","20591","high"
"93","safe","claim","51","red-101","blue-17","risky","safe","389","bandit-task","100","840905","0.0-99.0","20591","high"
"94","safe","claim","49","red-170","blue-98","risky","safe","375","bandit-task","101","844259","0.0-100.0","20591","high"
"95","safe","claim","50","red-91","blue-11","risky","safe","386","bandit-task","102","848276","0.0-101.0","20591","high"
"96","safe","claim","50","red-127","blue-14","risky","safe","402","bandit-task","103","852439","0.0-102.0","20591","high"
"97","safe","claim","50","red-73","blue-51","risky","safe","411","bandit-task","104","856143","0.0-103.0","20591","high"
"98","safe","claim","50","red-92","blue-71","risky","safe","412","bandit-task","105","860130","0.0-104.0","20591","high"
"99","safe","claim","49","red-152","blue-16","risky","safe","531","bandit-task","106","863907","0.0-105.0","20591","high"
