"trial","choice","action","feedback","left_stimulus","right_stimulus","left_option","right_option","rt","trial_type","trial_index","time_elapsed","internal_node_id","participant","condition"
"0","safe","claim","51","red-15","blue-142","safe","risky","12748","bandit-task","7","249464","0.0-6.0","20562","high"
"1","risky","claim","59","red-4","blue-125","safe","risky","1417","bandit-task","8","257281","0.0-7.0","20562","high"
"2","safe","claim","51","red-91","blue-41","safe","risky","1156","bandit-task","9","261946","0.0-8.0","20562","high"
"3","safe","observe","50","red-103","blue-124","safe","risky","942","bandit-task","10","266819","0.0-9.0","20562","high"
"4","risky","observe","61","red-2","blue-162","safe","risky","530","bandit-task","11","270560","0.0-10.0","20562","high"
"5","safe","claim","52","red-130","blue-58","safe","risky","611","bandit-task","12","274565","0.0-11.0","20562","high"
"6","risky","claim","28","red-118","blue-84","safe","risky","524","bandit-task","13","278374","0.0-12.0","20562","high"
"7","safe","observe","49","red-133","blue-24","safe","risky","602","bandit-task","14","282433","0.0-13.0","20562","high"
"8","risky","observe","73","red-144","blue-67","safe","risky","652","bandit-task","15","286729","0.0-14.0","20562","high"
"9","safe","claim","51","red-28","blue-38","safe","risky","545","bandit-task","16","290969","0.0-15.0","20562","high"
"10","risky","claim","39","red-97","blue-185","safe","risky","443","bandit-task","17","295002","0.0-16.0","20562","high"
"11","safe","claim","50","red-182","blue-136","safe","risky","691","bandit-task","18","299389","0.0-17.0","20562","high"
"12","safe","claim","50","red-135","blue-197","safe","risky","539","bandit-task","19","303221","0.0-18.0","20562","high"
"13","risky","claim","21","red-98","blue-72","safe","risky","1976","bandit-task","20","308959","0.0-19.0","20562","high"
"14","risky","claim","21","red-59","blue-200","safe","risky","1910","bandit-task","21","314551","0.0-20.0","20562","high"
"15","risky","claim","75","red-101","blue-169","safe","risky","2970","bandit-task","22","321325","0.0-21.0","20562","high"
"16","safe","claim","48","red-113","blue-55","safe","risky","2787","bandit-task","23","327707","0.0-22.0","20562","high"
"17","risky","claim","32","red-201","blue-119","safe","risky","1488","bandit-task","24","334974","0.0-23.0","20562","high"
"18","safe","claim","49","red-117","blue-155","safe","risky","2799","bandit-task","25","341423","0.0-24.0","20562","high"
"19","safe","observe","49","red-121","blue-166","safe","risky","1552","bandit-task","26","349124","0.0-25.0","20562","high"
"20","risky","claim","65","red-20","blue-51","safe","risky","2133","bandit-task","27","355199","0.0-26.0","20562","high"
"21","risky","observe","65","red-131","blue-203","safe","risky","1494","bandit-task","28","360469","0.0-27.0","20562","high"
"22","risky","claim","31","red-69","blue-193","safe","risky","682","bandit-task","29","364703","0.0-28.0","20562","high"
"23","risky","claim","60","red-56","blue-31","safe","risky","1637","bandit-task","30","377440","0.0-29.0","20562","high"
"24","risky","claim","64","red-81","blue-8","safe","risky","683","bandit-task","31","381490","0.0-30.0","20562","high"
"25","risky","observe","57","red-3","blue-96","safe","risky","2832","bandit-task","32","388069","0.0-31.0","20562","high"
"26","safe","claim","50","red-161","blue-62","safe","risky","980","bandit-task","33","393319","0.0-32.0","20562","high"
"27","safe","claim","50","red-85","blue-80","safe","risky","916","bandit-task","34","397590","0.0-33.0","20562","high"
"28","risky","claim","38","red-64","blue-23","safe","risky","2322","bandit-task","35","403955","0.0-34.0","20562","high"
"29","safe","claim","52","red-30","blue-186","safe","risky","2740","bandit-task","36","409896","0.0-35.0","20562","high"
"30","safe","claim","49","red-6","blue-111","safe","risky","962","bandit-task","37","414811","0.0-36.0","20562","high"
"31","safe","claim","49","red-47","blue-112","safe","risky","1624","bandit-task","38","420465","0.0-37.0","20562","high"
"32","risky","observe","77","red-160","blue-50","safe","risky","2761","bandit-task","39","427361","0.0-38.0","20562","high"
"33","safe","claim","51","red-139","blue-75","safe","risky","1990","bandit-task","40","432648","0.0-39.0","20562","high"
"34","safe","claim","49","red-171","blue-120","safe","risky","1618","bandit-task","41","437738","0.0-40.0","20562","high"
"35","risky","claim","71","red-99","blue-150","safe","risky","1397","bandit-task","42","443518","0.0-41.0","20562","high"
"36","safe","claim","50","red-40","blue-45","safe","risky","663","bandit-task","43","447486","0.0-42.0","20562","high"
"37","risky","observe","68","red-129","blue-141","safe","risky","1419","bandit-task","44","452232","0.0-43.0","20562","high"
"38","safe","claim","50","red-170","blue-110","safe","risky","767","bandit-task","45","456150","0.0-44.0","20562","high"
"39","risky","claim","73","red-198","blue-16","safe","risky","781","bandit-task","46","460675","0.0-45.0","20562","high"
"40","risky","claim","77","red-159","blue-137","safe","risky","796","bandit-task","47","464980","0.0-46.0","20562","high"
"41","risky","claim","76","red-134","blue-89","safe","risky","716","bandit-task","48","470262","0.0-47.0","20562","high"
"42","safe","claim","49","red-57","blue-196","safe","risky","891","bandit-task","49","475521","0.0-48.0","20562","high"
"43","risky","claim","21","red-183","blue-25","safe","risky","737","bandit-task","50","483086","0.0-49.0","20562","high"
"44","safe","observe","52","red-140","blue-63","safe","risky","557","bandit-task","51","486663","0.0-50.0","20562","high"
"45","risky","observe","79","red-108","blue-202","safe","risky","409","bandit-task","52","490250","0.0-51.0","20562","high"
"46","risky","observe","55","red-65","blue-147","safe","risky","436","bandit-task","53","494578","0.0-52.0","20562","high"
"47","risky","claim","31","red-77","blue-17","safe","risky","435","bandit-task","54","498333","0.0-53.0","20562","high"
"48","risky","claim","37","red-114","blue-191","safe","risky","2159","bandit-task","55","504097","0.0-54.0","20562","high"
"49","safe","claim","49","red-46","blue-143","safe","risky","1801","bandit-task","56","509304","0.0-55.0","20562","high"
"50","safe","claim","49","red-22","blue-7","safe","risky","737","bandit-task","57","516001","0.0-56.0","20562","high"
"51","risky","claim","72","red-90","blue-152","safe","risky","3515","bandit-task","58","523416","0.0-57.0","20562","high"
"52","risky","claim","44","red-132","blue-173","safe","risky","834","bandit-task","59","528067","0.0-58.0","20562","high"
"53","risky","claim","43","red-179","blue-42","safe","risky","2063","bandit-task","60","534354","0.0-59.0","20562","high"
"54","risky","claim","75","red-92","blue-60","safe","risky","1051","bandit-task","61","539055","0.0-60.0","20562","high"
"55","safe","claim","48","red-180","blue-107","safe","risky","1245","bandit-task","62","543660","0.0-61.0","20562","high"
"56","safe","claim","51","red-9","blue-176","safe","risky","1105","bandit-task","63","548172","0.0-62.0","20562","high"
"57","risky","observe","26","red-187","blue-188","safe","risky","917","bandit-task","64","552453","0.0-63.0","20562","high"
"58","safe","claim","50","red-37","blue-167","safe","risky","794","bandit-task","65","557433","0.0-64.0","20562","high"
"59","risky","claim","34","red-115","blue-145","safe","risky","841","bandit-task","66","561929","0.0-65.0","20562","high"
"60","risky","claim","33","red-19","blue-138","safe","risky","1265","bandit-task","67","567437","0.0-66.0","20562","high"
"61","safe","claim","49","red-181","blue-73","safe","risky","1588","bandit-task","68","573188","0.0-67.0","20562","high"
"62","risky","claim","28","red-93","blue-116","safe","risky","1235","bandit-task","69","577876","0.0-68.0","20562","high"
"63","risky","claim","64","red-128","blue-74","safe","risky","1666","bandit-task","70","583625","0.0-69.0","20562","high"
"64","safe","claim","51","red-1","blue-100","safe","risky","780","bandit-task","71","589316","0.0-70.0","20562","high"
"65","risky","claim","35","red-82","blue-49","safe","risky","811","bandit-task","72","593819","0.0-71.0","20562","high"
"66","risky","claim","70","red-71","blue-157","safe","risky","986","bandit-task","73","598074","0.0-72.0","20562","high"
"67","risky","claim","29","red-178","blue-151","safe","risky","1175","bandit-task","74","603428","0.0-73.0","20562","high"
"68","risky","claim","42","red-195","blue-10","safe","risky","1233","bandit-task","75","607923","0.0-74.0","20562","high"
"69","safe","claim","50","red-175","blue-29","safe","risky","1118","bandit-task","76","612434","0.0-75.0","20562","high"
"70","risky","claim","12","red-86","blue-194","safe","risky","2513","bandit-task","77","619072","0.0-76.0","20562","high"
"71","risky","claim","29","red-44","blue-70","safe","risky","729","bandit-task","78","624726","0.0-77.0","20562","high"
"72","risky","claim","79","red-88","blue-199","safe","risky","1353","bandit-task","79","629706","0.0-78.0","20562","high"
"73","safe","claim","53","red-105","blue-33","safe","risky","1176","bandit-task","80","633806","0.0-79.0","20562","high"
"74","safe","claim","50","red-146","blue-149","safe","risky","774","bandit-task","81","637752","0.0-80.0","20562","high"
"75","safe","observe","50","red-26","blue-34","safe","risky","1508","bandit-task","82","642225","0.0-81.0","20562","high"
"76","safe","claim","51","red-52","blue-36","safe","risky","955","bandit-task","83","646405","0.0-82.0","20562","high"
"77","safe","claim","49","red-122","blue-13","safe","risky","1677","bandit-task","84","651210","0.0-83.0","20562","high"
"78","risky","claim","68","red-95","blue-83","safe","risky","923","bandit-task","85","655281","0.0-84.0","20562","high"
"79","risky","claim","29","red-164","blue-204","safe","risky","1147","bandit-task","86","659850","0.0-85.0","20562","high"
"80","safe","claim","50","red-184","blue-21","safe","risky","1031","bandit-task","87","663964","0.0-86.0","20562","high"
"81","safe","claim","50","red-148","blue-123","safe","risky","771","bandit-task","88","668775","0.0-87.0","20562","high"
"82","risky","claim","25","red-102","blue-165","safe","risky","643","bandit-task","89","672457","0.0-88.0","20562","high"
"83","risky","claim","82","red-104","blue-53","safe","risky","729","bandit-task","90","676294","0.0-89.0","20562","high"
"84","risky","claim","34","red-68","blue-154","safe","risky","707","bandit-task","91","681074","0.0-90.0","20562","high"
"85","risky","observe","21","red-163","blue-94","safe","risky","2232","bandit-task","92","686412","0.0-91.0","20562","high"
"86","safe","claim","50","red-14","blue-126","safe","risky","1339","bandit-task","93","691599","0.0-92.0","20562","high"
"87","risky","claim","85","red-76","blue-11","safe","risky","1293","bandit-task","94","696571","0.0-93.0","20562","high"
"88","risky","claim","75","red-106","blue-158","safe","risky","811","bandit-task","95","700804","0.0-94.0","20562","high"
"89","risky","claim","27","red-189","blue-66","safe","risky","794","bandit-task","96","704931","0.0-95.0","20562","high"
"90","risky","claim","27","red-156","blue-12","safe","risky","775","bandit-task","97","710008","0.0-96.0","20562","high"
"91","safe","claim","50","red-174","blue-5","safe","risky","1039","bandit-task","98","714239","0.0-97.0","20562","high"
"92","safe","observe","48","red-78","blue-48","safe","risky","1046","bandit-task","99","719982","0.0-98.0","20562","high"
"93","safe","claim","50","red-43","blue-127","safe","risky","838","bandit-task","100","723891","0.0-99.0","20562","high"
"94","safe","claim","50","red-168","blue-32","safe","risky","840","bandit-task","101","728276","0.0-100.0","20562","high"
"95","safe","claim","49","red-61","blue-27","safe","risky","911","bandit-task","102","733191","0.0-101.0","20562","high"
"96","risky","claim","21","red-190","blue-192","safe","risky","787","bandit-task","103","736916","0.0-102.0","20562","high"
"97","safe","claim","50","red-54","blue-87","safe","risky","721","bandit-task","104","740590","0.0-103.0","20562","high"
"98","risky","claim","18","red-172","blue-35","safe","risky","796","bandit-task","105","745423","0.0-104.0","20562","high"
"99","safe","claim","50","red-109","blue-18","safe","risky","723","bandit-task","106","749119","0.0-105.0","20562","high"
