"trial","choice","action","feedback","left_stimulus","right_stimulus","left_option","right_option","rt","trial_type","trial_index","time_elapsed","internal_node_id","participant","condition"
"0","risky","observe","58","blue-198","red-45","safe","risky","2675","bandit-task","7","131123","0.0-6.0","21389","high"
"1","safe","observe","49","blue-58","red-5","safe","risky","843","bandit-task","8","136100","0.0-7.0","21389","high"
"2","risky","observe","60","blue-190","red-121","safe","risky","633","bandit-task","9","141670","0.0-8.0","21389","high"
"3","risky","claim","80","blue-185","red-56","safe","risky","734","bandit-task","10","146166","0.0-9.0","21389","high"
"4","risky","claim","82","blue-160","red-149","safe","risky","516","bandit-task","11","150566","0.0-10.0","21389","high"
"5","risky","claim","23","blue-155","red-82","safe","risky","969","bandit-task","12","155513","0.0-11.0","21389","high"
"6","safe","claim","50","blue-128","red-92","safe","risky","1302","bandit-task","13","160956","0.0-12.0","21389","high"
"7","safe","claim","50","blue-84","red-1","safe","risky","1366","bandit-task","14","165996","0.0-13.0","21389","high"
"8","safe","claim","50","blue-26","red-123","safe","risky","1326","bandit-task","15","170949","0.0-14.0","21389","high"
"9","safe","claim","50","blue-139","red-151","safe","risky","675","bandit-task","16","175381","0.0-15.0","21389","high"
"10","risky","claim","68","blue-193","red-99","safe","risky","769","bandit-task","17","179594","0.0-16.0","21389","high"
"11","safe","claim","50","blue-86","red-171","safe","risky","632","bandit-task","18","183935","0.0-17.0","21389","high"
"12","risky","claim","64","blue-104","red-36","safe","risky","510","bandit-task","19","188415","0.0-18.0","21389","high"
"13","risky","claim","67","blue-91","red-126","safe","risky","1763","bandit-task","20","193783","0.0-19.0","21389","high"
"14","safe","claim","51","blue-191","red-113","safe","risky","648","bandit-task","21","198490","0.0-20.0","21389","high"
"15","risky","claim","29","blue-122","red-3","safe","risky","662","bandit-task","22","203166","0.0-21.0","21389","high"
"16","safe","claim","49","blue-30","red-12","safe","risky","510","bandit-task","23","207249","0.0-22.0","21389","high"
"17","risky","claim","80","blue-96","red-24","safe","risky","427","bandit-task","24","211126","0.0-23.0","21389","high"
"18","safe","claim","50","blue-196","red-187","safe","risky","526","bandit-task","25","215215","0.0-24.0","21389","high"
"19","risky","claim","34","blue-152","red-22","safe","risky","558","bandit-task","26","219428","0.0-25.0","21389","high"
"20","safe","claim","52","blue-64","red-17","safe","risky","647","bandit-task","27","223524","0.0-26.0","21389","high"
"21","risky","claim","69","blue-158","red-28","safe","risky","535","bandit-task","28","228336","0.0-27.0","21389","high"
"22","safe","claim","51","blue-9","red-186","safe","risky","786","bandit-task","29","233059","0.0-28.0","21389","high"
"23","risky","claim","23","blue-32","red-65","safe","risky","493","bandit-task","30","237595","0.0-29.0","21389","high"
"24","safe","claim","51","blue-60","red-27","safe","risky","627","bandit-task","31","242059","0.0-30.0","21389","high"
"25","risky","claim","12","blue-10","red-136","safe","risky","551","bandit-task","32","246051","0.0-31.0","21389","high"
"26","safe","claim","49","blue-147","red-59","safe","risky","474","bandit-task","33","249855","0.0-32.0","21389","high"
"27","safe","claim","49","blue-93","red-98","safe","risky","559","bandit-task","34","253757","0.0-33.0","21389","high"
"28","risky","claim","78","blue-127","red-76","safe","risky","575","bandit-task","35","257789","0.0-34.0","21389","high"
"29","safe","claim","50","blue-88","red-203","safe","risky","763","bandit-task","36","262083","0.0-35.0","21389","high"
"30","safe","claim","50","blue-81","red-183","safe","risky","851","bandit-task","37","266758","0.0-36.0","21389","high"
"31","risky","claim","19","blue-168","red-189","safe","risky","641","bandit-task","38","271581","0.0-37.0","21389","high"
"32","risky","claim","71","blue-25","red-173","safe","risky","1523","bandit-task","39","277857","0.0-38.0","21389","high"
"33","safe","claim","51","blue-90","red-63","safe","risky","745","bandit-task","40","282383","0.0-39.0","21389","high"
"34","safe","claim","49","blue-142","red-107","safe","risky","940","bandit-task","41","287243","0.0-40.0","21389","high"
"35","risky","claim","84","blue-178","red-67","safe","risky","890","bandit-task","42","291941","0.0-41.0","21389","high"
"36","safe","claim","50","blue-197","red-4","safe","risky","681","bandit-task","43","296503","0.0-42.0","21389","high"
"37","risky","claim","31","blue-73","red-11","safe","risky","626","bandit-task","44","302570","0.0-43.0","21389","high"
"38","safe","claim","50","blue-74","red-204","safe","risky","525","bandit-task","45","306961","0.0-44.0","21389","high"
"39","risky","claim","32","blue-102","red-118","safe","risky","420","bandit-task","46","310984","0.0-45.0","21389","high"
"40","risky","claim","63","blue-138","red-48","safe","risky","1105","bandit-task","47","315318","0.0-46.0","21389","high"
"41","risky","claim","23","blue-19","red-166","safe","risky","1178","bandit-task","48","320292","0.0-47.0","21389","high"
"42","safe","claim","50","blue-110","red-116","safe","risky","883","bandit-task","49","324712","0.0-48.0","21389","high"
"43","risky","claim","68","blue-109","red-202","safe","risky","640","bandit-task","50","329028","0.0-49.0","21389","high"
"44","safe","claim","51","blue-29","red-108","safe","risky","648","bandit-task","51","332850","0.0-50.0","21389","high"
"45","risky","claim","21","blue-37","red-130","safe","risky","584","bandit-task","52","338352","0.0-51.0","21389","high"
"46","safe","claim","49","blue-199","red-115","safe","risky","666","bandit-task","53","342987","0.0-52.0","21389","high"
"47","risky","claim","12","blue-2","red-13","safe","risky","1295","bandit-task","54","348151","0.0-53.0","21389","high"
"48","safe","claim","50","blue-52","red-16","safe","risky","639","bandit-task","55","352841","0.0-54.0","21389","high"
"49","risky","claim","33","blue-180","red-21","safe","risky","657","bandit-task","56","358641","0.0-55.0","21389","high"
"50","risky","claim","39","blue-20","red-125","safe","risky","925","bandit-task","57","363039","0.0-56.0","21389","high"
"51","safe","claim","49","blue-31","red-156","safe","risky","585","bandit-task","58","367947","0.0-57.0","21389","high"
"52","risky","claim","35","blue-103","red-14","safe","risky","1087","bandit-task","59","373047","0.0-58.0","21389","high"
"53","safe","claim","50","blue-83","red-201","safe","risky","648","bandit-task","60","377625","0.0-59.0","21389","high"
"54","risky","claim","37","blue-95","red-170","safe","risky","573","bandit-task","61","382662","0.0-60.0","21389","high"
"55","risky","claim","12","blue-124","red-150","safe","risky","1511","bandit-task","62","387549","0.0-61.0","21389","high"
"56","risky","claim","66","blue-148","red-41","safe","risky","1082","bandit-task","63","392086","0.0-62.0","21389","high"
"57","safe","claim","50","blue-70","red-175","safe","risky","446","bandit-task","64","396504","0.0-63.0","21389","high"
"58","safe","claim","50","blue-172","red-157","safe","risky","1697","bandit-task","65","401958","0.0-64.0","21389","high"
"59","risky","claim","56","blue-42","red-35","safe","risky","617","bandit-task","66","407854","0.0-65.0","21389","high"
"60","safe","claim","50","blue-80","red-165","safe","risky","799","bandit-task","67","413340","0.0-66.0","21389","high"
"61","risky","claim","83","blue-164","red-134","safe","risky","534","bandit-task","68","417815","0.0-67.0","21389","high"
"62","safe","claim","51","blue-184","red-114","safe","risky","1031","bandit-task","69","423907","0.0-68.0","21389","high"
"63","risky","claim","83","blue-163","red-18","safe","risky","518","bandit-task","70","428077","0.0-69.0","21389","high"
"64","safe","claim","50","blue-77","red-181","safe","risky","557","bandit-task","71","432197","0.0-70.0","21389","high"
"65","risky","claim","65","blue-100","red-47","safe","risky","649","bandit-task","72","436937","0.0-71.0","21389","high"
"66","safe","claim","50","blue-62","red-72","safe","risky","664","bandit-task","73","441505","0.0-72.0","21389","high"
"67","risky","claim","79","blue-15","red-34","safe","risky","769","bandit-task","74","445969","0.0-73.0","21389","high"
"68","safe","claim","49","blue-162","red-179","safe","risky","655","bandit-task","75","450292","0.0-74.0","21389","high"
"69","risky","claim","13","blue-135","red-38","safe","risky","713","bandit-task","76","455092","0.0-75.0","21389","high"
"70","safe","claim","52","blue-188","red-53","safe","risky","795","bandit-task","77","459968","0.0-76.0","21389","high"
"71","risky","claim","19","blue-71","red-167","safe","risky","967","bandit-task","78","466478","0.0-77.0","21389","high"
"72","safe","claim","49","blue-8","red-153","safe","risky","774","bandit-task","79","472307","0.0-78.0","21389","high"
"73","risky","claim","83","blue-117","red-69","safe","risky","714","bandit-task","80","476758","0.0-79.0","21389","high"
"74","safe","claim","51","blue-49","red-94","safe","risky","909","bandit-task","81","481502","0.0-80.0","21389","high"
"75","risky","claim","80","blue-51","red-61","safe","risky","713","bandit-task","82","485924","0.0-81.0","21389","high"
"76","safe","claim","50","blue-33","red-46","safe","risky","760","bandit-task","83","490471","0.0-82.0","21389","high"
"77","risky","claim","73","blue-87","red-140","safe","risky","715","bandit-task","84","495031","0.0-83.0","21389","high"
"78","safe","claim","51","blue-200","red-105","safe","risky","819","bandit-task","85","499598","0.0-84.0","21389","high"
"79","risky","claim","49","blue-192","red-112","safe","risky","616","bandit-task","86","503875","0.0-85.0","21389","high"
"80","safe","claim","50","blue-6","red-137","safe","risky","583","bandit-task","87","507825","0.0-86.0","21389","high"
"81","safe","claim","50","blue-161","red-176","safe","risky","1372","bandit-task","88","513297","0.0-87.0","21389","high"
"82","risky","claim","27","blue-44","red-54","safe","risky","849","bandit-task","89","518544","0.0-88.0","21389","high"
"83","safe","claim","50","blue-159","red-195","safe","risky","1897","bandit-task","90","524564","0.0-89.0","21389","high"
"84","risky","claim","83","blue-177","red-57","safe","risky","729","bandit-task","91","529610","0.0-90.0","21389","high"
"85","safe","claim","50","blue-43","red-78","safe","risky","2431","bandit-task","92","551314","0.0-91.0","21389","high"
"86","risky","claim","61","blue-131","red-132","safe","risky","894","bandit-task","93","555900","0.0-92.0","21389","high"
"87","safe","claim","48","blue-120","red-141","safe","risky","908","bandit-task","94","560054","0.0-93.0","21389","high"
"88","safe","claim","49","blue-129","red-133","safe","risky","941","bandit-task","95","565819","0.0-94.0","21389","high"
"89","risky","claim","81","blue-55","red-194","safe","risky","661","bandit-task","96","570193","0.0-95.0","21389","high"
"90","safe","claim","50","blue-89","red-39","safe","risky","1802","bandit-task","97","575665","0.0-96.0","21389","high"
"91","risky","claim","70","blue-40","red-143","safe","risky","657","bandit-task","98","580163","0.0-97.0","21389","high"
"92","risky","claim","56","blue-75","red-145","safe","risky","1205","bandit-task","99","584791","0.0-98.0","21389","high"
"93","risky","claim","51","blue-182","red-169","safe","risky","1024","bandit-task","100","590143","0.0-99.0","21389","high"
"94","risky","claim","60","blue-101","red-119","safe","risky","1414","bandit-task","101","595438","0.0-100.0","21389","high"
"95","safe","claim","50","blue-23","red-174","safe","risky","757","bandit-task","102","600297","0.0-101.0","21389","high"
"96","risky","claim","43","blue-106","red-66","safe","risky","907","bandit-task","103","605164","0.0-102.0","21389","high"
"97","safe","claim","50","blue-154","red-85","safe","risky","820","bandit-task","104","609522","0.0-103.0","21389","high"
"98","risky","claim","17","blue-79","red-146","safe","risky","892","bandit-task","105","614238","0.0-104.0","21389","high"
"99","safe","claim","48","blue-7","red-97","safe","risky","2809","bandit-task","106","620648","0.0-105.0","21389","high"
