"trial","choice","action","feedback","left_stimulus","right_stimulus","left_option","right_option","rt","trial_type","trial_index","time_elapsed","internal_node_id","participant","condition"
"0","risky","claim","76","blue-103","red-200","safe","risky","5841","bandit-task","13","393919","0.0-6.0","21596","high"
"1","risky","observe","61","blue-174","red-134","safe","risky","4106","bandit-task","14","403004","0.0-7.0","21596","high"
"2","risky","claim","28","blue-19","red-145","safe","risky","2905","bandit-task","15","410111","0.0-8.0","21596","high"
"3","risky","claim","74","blue-147","red-162","safe","risky","2038","bandit-task","16","417025","0.0-9.0","21596","high"
"4","risky","claim","36","blue-122","red-28","safe","risky","1808","bandit-task","17","423422","0.0-10.0","21596","high"
"5","risky","observe","32","blue-27","red-35","safe","risky","2677","bandit-task","18","429886","0.0-11.0","21596","high"
"6","risky","observe","43","blue-161","red-148","safe","risky","2881","bandit-task","19","436861","0.0-12.0","21596","high"
"7","safe","observe","51","blue-197","red-11","safe","risky","1541","bandit-task","20","442087","0.0-13.0","21596","high"
"8","safe","observe","50","blue-115","red-117","safe","risky","1913","bandit-task","21","447108","0.0-14.0","21596","high"
"9","risky","claim","51","blue-25","red-87","safe","risky","1371","bandit-task","22","452129","0.0-15.0","21596","high"
"10","safe","claim","49","blue-133","red-204","safe","risky","959","bandit-task","23","457222","0.0-16.0","21596","high"
"11","risky","claim","11","blue-78","red-167","safe","risky","1650","bandit-task","24","462982","0.0-17.0","21596","high"
"12","risky","claim","61","blue-20","red-186","safe","risky","2040","bandit-task","25","468642","0.0-18.0","21596","high"
"13","risky","observe","26","blue-179","red-75","safe","risky","2235","bandit-task","26","474371","0.0-19.0","21596","high"
"14","risky","observe","61","blue-97","red-14","safe","risky","1266","bandit-task","27","479306","0.0-20.0","21596","high"
"15","risky","observe","64","blue-136","red-154","safe","risky","2094","bandit-task","28","484838","0.0-21.0","21596","high"
"16","safe","claim","50","blue-169","red-188","safe","risky","1372","bandit-task","29","490295","0.0-22.0","21596","high"
"17","safe","observe","49","blue-196","red-124","safe","risky","1132","bandit-task","30","495156","0.0-23.0","21596","high"
"18","risky","claim","78","blue-195","red-140","safe","risky","1051","bandit-task","31","499771","0.0-24.0","21596","high"
"19","risky","claim","70","blue-55","red-1","safe","risky","557","bandit-task","32","504146","0.0-25.0","21596","high"
"20","risky","claim","37","blue-57","red-51","safe","risky","747","bandit-task","33","508679","0.0-26.0","21596","high"
"21","safe","claim","50","blue-71","red-13","safe","risky","2278","bandit-task","34","515361","0.0-27.0","21596","high"
"22","risky","claim","60","blue-111","red-18","safe","risky","1020","bandit-task","35","519744","0.0-28.0","21596","high"
"23","risky","claim","63","blue-177","red-59","safe","risky","1741","bandit-task","36","524863","0.0-29.0","21596","high"
"24","risky","claim","78","blue-15","red-126","safe","risky","1178","bandit-task","37","529557","0.0-30.0","21596","high"
"25","safe","claim","50","blue-141","red-34","safe","risky","1608","bandit-task","38","535207","0.0-31.0","21596","high"
"26","safe","observe","50","blue-80","red-45","safe","risky","1980","bandit-task","39","540473","0.0-32.0","21596","high"
"27","safe","claim","49","blue-127","red-98","safe","risky","1727","bandit-task","40","546000","0.0-33.0","21596","high"
"28","risky","claim","32","blue-135","red-90","safe","risky","2054","bandit-task","41","552637","0.0-34.0","21596","high"
"29","safe","observe","50","blue-38","red-184","safe","risky","1705","bandit-task","42","557668","0.0-35.0","21596","high"
"30","risky","claim","35","blue-199","red-92","safe","risky","3029","bandit-task","43","564494","0.0-36.0","21596","high"
"31","safe","claim","50","blue-42","red-144","safe","risky","2709","bandit-task","44","571039","0.0-37.0","21596","high"
"32","risky","claim","40","blue-62","red-156","safe","risky","1263","bandit-task","45","576046","0.0-38.0","21596","high"
"33","safe","observe","48","blue-29","red-176","safe","risky","3024","bandit-task","46","582970","0.0-39.0","21596","high"
"34","safe","observe","49","blue-77","red-58","safe","risky","1712","bandit-task","47","588997","0.0-40.0","21596","high"
"35","safe","claim","50","blue-182","red-67","safe","risky","2343","bandit-task","48","595406","0.0-41.0","21596","high"
"36","risky","claim","21","blue-74","red-73","safe","risky","1587","bandit-task","49","600563","0.0-42.0","21596","high"
"37","risky","claim","84","blue-68","red-143","safe","risky","1599","bandit-task","50","605975","0.0-43.0","21596","high"
"38","safe","observe","49","blue-91","red-6","safe","risky","1619","bandit-task","51","611680","0.0-44.0","21596","high"
"39","risky","claim","82","blue-3","red-146","safe","risky","1846","bandit-task","52","618230","0.0-45.0","21596","high"
"40","risky","observe","59","blue-93","red-157","safe","risky","1168","bandit-task","53","622874","0.0-46.0","21596","high"
"41","safe","claim","51","blue-72","red-121","safe","risky","2788","bandit-task","54","629754","0.0-47.0","21596","high"
"42","safe","claim","50","blue-44","red-83","safe","risky","1984","bandit-task","55","635624","0.0-48.0","21596","high"
"43","risky","claim","27","blue-86","red-105","safe","risky","1606","bandit-task","56","640700","0.0-49.0","21596","high"
"44","safe","claim","51","blue-84","red-100","safe","risky","1062","bandit-task","57","645668","0.0-50.0","21596","high"
"45","safe","claim","50","blue-131","red-21","safe","risky","1869","bandit-task","58","651374","0.0-51.0","21596","high"
"46","risky","claim","31","blue-89","red-31","safe","risky","927","bandit-task","59","656313","0.0-52.0","21596","high"
"47","safe","observe","51","blue-7","red-129","safe","risky","1075","bandit-task","60","661353","0.0-53.0","21596","high"
"48","risky","observe","24","blue-114","red-10","safe","risky","555","bandit-task","61","665176","0.0-54.0","21596","high"
"49","safe","claim","52","blue-159","red-53","safe","risky","1010","bandit-task","62","670656","0.0-55.0","21596","high"
"50","safe","claim","51","blue-49","red-2","safe","risky","1098","bandit-task","63","676231","0.0-56.0","21596","high"
"51","risky","claim","77","blue-166","red-139","safe","risky","2028","bandit-task","64","682048","0.0-57.0","21596","high"
"52","safe","observe","51","blue-116","red-52","safe","risky","2249","bandit-task","65","687489","0.0-58.0","21596","high"
"53","risky","claim","32","blue-106","red-192","safe","risky","536","bandit-task","66","692188","0.0-59.0","21596","high"
"54","risky","claim","82","blue-36","red-26","safe","risky","1778","bandit-task","67","697293","0.0-60.0","21596","high"
"55","safe","claim","48","blue-128","red-118","safe","risky","1988","bandit-task","68","703129","0.0-61.0","21596","high"
"56","risky","claim","62","blue-61","red-125","safe","risky","989","bandit-task","69","707473","0.0-62.0","21596","high"
"57","risky","claim","81","blue-23","red-37","safe","risky","1951","bandit-task","70","712967","0.0-63.0","21596","high"
"58","safe","claim","50","blue-43","red-173","safe","risky","1488","bandit-task","71","718024","0.0-64.0","21596","high"
"59","risky","claim","84","blue-41","red-60","safe","risky","1402","bandit-task","72","723431","0.0-65.0","21596","high"
"60","risky","claim","70","blue-194","red-39","safe","risky","1471","bandit-task","73","728238","0.0-66.0","21596","high"
"61","risky","claim","35","blue-201","red-8","safe","risky","1105","bandit-task","74","733587","0.0-67.0","21596","high"
"62","risky","claim","23","blue-104","red-168","safe","risky","1736","bandit-task","75","739000","0.0-68.0","21596","high"
"63","risky","observe","73","blue-96","red-69","safe","risky","2037","bandit-task","76","744439","0.0-69.0","21596","high"
"64","risky","claim","32","blue-99","red-40","safe","risky","1155","bandit-task","77","749065","0.0-70.0","21596","high"
"65","risky","observe","37","blue-82","red-85","safe","risky","3676","bandit-task","78","756017","0.0-71.0","21596","high"
"66","safe","claim","49","blue-123","red-190","safe","risky","2587","bandit-task","79","762783","0.0-72.0","21596","high"
"67","risky","claim","21","blue-158","red-187","safe","risky","1504","bandit-task","80","769229","0.0-73.0","21596","high"
"68","safe","observe","51","blue-193","red-63","safe","risky","841","bandit-task","81","773500","0.0-74.0","21596","high"
"69","risky","claim","69","blue-95","red-138","safe","risky","1229","bandit-task","82","779913","0.0-75.0","21596","high"
"70","risky","observe","24","blue-32","red-150","safe","risky","1080","bandit-task","83","784781","0.0-76.0","21596","high"
"71","safe","claim","50","blue-79","red-46","safe","risky","1426","bandit-task","84","789995","0.0-77.0","21596","high"
"72","safe","claim","51","blue-137","red-81","safe","risky","828","bandit-task","85","794982","0.0-78.0","21596","high"
"73","risky","observe","90","blue-132","red-65","safe","risky","3788","bandit-task","86","803473","0.0-79.0","21596","high"
"74","risky","observe","18","blue-48","red-149","safe","risky","2243","bandit-task","87","809053","0.0-80.0","21596","high"
"75","safe","claim","49","blue-181","red-153","safe","risky","1073","bandit-task","88","813919","0.0-81.0","21596","high"
"76","safe","claim","51","blue-108","red-56","safe","risky","584","bandit-task","89","817942","0.0-82.0","21596","high"
"77","risky","claim","37","blue-191","red-17","safe","risky","2438","bandit-task","90","824353","0.0-83.0","21596","high"
"78","risky","claim","78","blue-130","red-119","safe","risky","532","bandit-task","91","828913","0.0-84.0","21596","high"
"79","risky","observe","30","blue-160","red-107","safe","risky","515","bandit-task","92","833769","0.0-85.0","21596","high"
"80","safe","observe","50","blue-142","red-47","safe","risky","610","bandit-task","93","839006","0.0-86.0","21596","high"
"81","safe","claim","51","blue-22","red-110","safe","risky","595","bandit-task","94","843541","0.0-87.0","21596","high"
"82","risky","claim","78","blue-54","red-163","safe","risky","505","bandit-task","95","847840","0.0-88.0","21596","high"
"83","risky","claim","70","blue-109","red-101","safe","risky","1573","bandit-task","96","853647","0.0-89.0","21596","high"
"84","risky","observe","21","blue-171","red-112","safe","risky","491","bandit-task","97","858208","0.0-90.0","21596","high"
"85","safe","claim","49","blue-170","red-164","safe","risky","538","bandit-task","98","862772","0.0-91.0","21596","high"
"86","safe","claim","51","blue-16","red-189","safe","risky","545","bandit-task","99","867201","0.0-92.0","21596","high"
"87","risky","claim","35","blue-155","red-120","safe","risky","442","bandit-task","100","871831","0.0-93.0","21596","high"
"88","risky","observe","26","blue-88","red-203","safe","risky","455","bandit-task","101","876489","0.0-94.0","21596","high"
"89","safe","claim","50","blue-50","red-175","safe","risky","518","bandit-task","102","881669","0.0-95.0","21596","high"
"90","risky","claim","37","blue-5","red-178","safe","risky","457","bandit-task","103","885825","0.0-96.0","21596","high"
"91","risky","observe","27","blue-76","red-202","safe","risky","451","bandit-task","104","890196","0.0-97.0","21596","high"
"92","safe","claim","51","blue-165","red-9","safe","risky","538","bandit-task","105","894848","0.0-98.0","21596","high"
"93","safe","claim","52","blue-172","red-64","safe","risky","545","bandit-task","106","899527","0.0-99.0","21596","high"
"94","safe","claim","50","blue-102","red-66","safe","risky","918","bandit-task","107","904141","0.0-100.0","21596","high"
"95","safe","claim","50","blue-152","red-12","safe","risky","994","bandit-task","108","908652","0.0-101.0","21596","high"
"96","safe","claim","51","blue-24","red-33","safe","risky","1009","bandit-task","109","913300","0.0-102.0","21596","high"
"97","safe","claim","50","blue-180","red-113","safe","risky","680","bandit-task","110","918002","0.0-103.0","21596","high"
"98","safe","claim","50","blue-4","red-94","safe","risky","843","bandit-task","111","922327","0.0-104.0","21596","high"
"99","safe","claim","52","blue-70","red-151","safe","risky","2301","bandit-task","112","928439","0.0-105.0","21596","high"
