"trial","choice","action","feedback","left_stimulus","right_stimulus","left_option","right_option","rt","trial_type","trial_index","time_elapsed","internal_node_id","participant","condition"
"0","safe","observe","51","blue-105","red-159","risky","safe","7700","bandit-task","10","212625","0.0-6.0","21617","high"
"1","risky","observe","74","blue-199","red-77","risky","safe","2953","bandit-task","11","219823","0.0-7.0","21617","high"
"2","risky","observe","39","blue-2","red-66","risky","safe","3248","bandit-task","12","226931","0.0-8.0","21617","high"
"3","risky","observe","40","blue-184","red-164","risky","safe","1259","bandit-task","13","232017","0.0-9.0","21617","high"
"4","risky","claim","68","blue-157","red-161","risky","safe","876","bandit-task","14","237284","0.0-10.0","21617","high"
"5","safe","observe","52","blue-139","red-197","risky","safe","850","bandit-task","15","243395","0.0-11.0","21617","high"
"6","risky","observe","30","blue-34","red-62","risky","safe","977","bandit-task","16","248186","0.0-12.0","21617","high"
"7","safe","observe","50","blue-42","red-126","risky","safe","895","bandit-task","17","252999","0.0-13.0","21617","high"
"8","risky","observe","32","blue-114","red-171","risky","safe","2040","bandit-task","18","258864","0.0-14.0","21617","high"
"9","safe","observe","52","blue-128","red-120","risky","safe","827","bandit-task","19","263459","0.0-15.0","21617","high"
"10","safe","claim","50","blue-43","red-58","risky","safe","1620","bandit-task","20","269463","0.0-16.0","21617","high"
"11","safe","claim","50","blue-64","red-127","risky","safe","629","bandit-task","21","273721","0.0-17.0","21617","high"
"12","safe","claim","48","blue-121","red-144","risky","safe","530","bandit-task","22","278324","0.0-18.0","21617","high"
"13","safe","claim","50","blue-177","red-49","risky","safe","727","bandit-task","23","283271","0.0-19.0","21617","high"
"14","safe","claim","51","blue-8","red-18","risky","safe","719","bandit-task","24","288029","0.0-20.0","21617","high"
"15","safe","claim","50","blue-30","red-163","risky","safe","788","bandit-task","25","293001","0.0-21.0","21617","high"
"16","safe","claim","50","blue-130","red-6","risky","safe","740","bandit-task","26","297718","0.0-22.0","21617","high"
"17","safe","claim","49","blue-84","red-60","risky","safe","567","bandit-task","27","302042","0.0-23.0","21617","high"
"18","safe","claim","52","blue-91","red-133","risky","safe","632","bandit-task","28","306894","0.0-24.0","21617","high"
"19","safe","claim","49","blue-146","red-4","risky","safe","588","bandit-task","29","311792","0.0-25.0","21617","high"
"20","safe","claim","49","blue-59","red-37","risky","safe","578","bandit-task","30","316411","0.0-26.0","21617","high"
"21","safe","claim","49","blue-16","red-131","risky","safe","825","bandit-task","31","321513","0.0-27.0","21617","high"
"22","safe","claim","51","blue-5","red-142","risky","safe","1218","bandit-task","32","327732","0.0-28.0","21617","high"
"23","safe","claim","51","blue-118","red-173","risky","safe","1320","bandit-task","33","333657","0.0-29.0","21617","high"
"24","safe","claim","50","blue-148","red-89","risky","safe","636","bandit-task","34","338014","0.0-30.0","21617","high"
"25","safe","claim","49","blue-152","red-187","risky","safe","1678","bandit-task","35","343805","0.0-31.0","21617","high"
"26","safe","claim","50","blue-135","red-9","risky","safe","701","bandit-task","36","348924","0.0-32.0","21617","high"
"27","safe","claim","52","blue-117","red-125","risky","safe","581","bandit-task","37","353707","0.0-33.0","21617","high"
"28","safe","claim","50","blue-134","red-106","risky","safe","647","bandit-task","38","359323","0.0-34.0","21617","high"
"29","safe","claim","49","blue-168","red-193","risky","safe","1184","bandit-task","39","365384","0.0-35.0","21617","high"
"30","safe","claim","49","blue-149","red-1","risky","safe","1169","bandit-task","40","370700","0.0-36.0","21617","high"
"31","safe","claim","50","blue-74","red-169","risky","safe","845","bandit-task","41","375908","0.0-37.0","21617","high"
"32","safe","claim","50","blue-56","red-81","risky","safe","1379","bandit-task","42","380711","0.0-38.0","21617","high"
"33","safe","claim","51","blue-154","red-201","risky","safe","767","bandit-task","43","385379","0.0-39.0","21617","high"
"34","safe","claim","50","blue-35","red-123","risky","safe","1400","bandit-task","44","391826","0.0-40.0","21617","high"
"35","safe","claim","51","blue-200","red-45","risky","safe","563","bandit-task","45","396462","0.0-41.0","21617","high"
"36","safe","claim","49","blue-51","red-93","risky","safe","1640","bandit-task","46","402863","0.0-42.0","21617","high"
"37","safe","claim","50","blue-132","red-175","risky","safe","555","bandit-task","47","407106","0.0-43.0","21617","high"
"38","safe","claim","51","blue-61","red-28","risky","safe","997","bandit-task","48","412446","0.0-44.0","21617","high"
"39","safe","claim","51","blue-115","red-12","risky","safe","734","bandit-task","49","418581","0.0-45.0","21617","high"
"40","safe","claim","50","blue-167","red-129","risky","safe","2214","bandit-task","50","427544","0.0-46.0","21617","high"
"41","safe","claim","49","blue-36","red-65","risky","safe","593","bandit-task","51","431744","0.0-47.0","21617","high"
"42","safe","claim","51","blue-170","red-181","risky","safe","604","bandit-task","52","436355","0.0-48.0","21617","high"
"43","safe","claim","49","blue-103","red-147","risky","safe","546","bandit-task","53","440525","0.0-49.0","21617","high"
"44","safe","claim","49","blue-122","red-186","risky","safe","570","bandit-task","54","444979","0.0-50.0","21617","high"
"45","safe","claim","49","blue-14","red-71","risky","safe","612","bandit-task","55","450084","0.0-51.0","21617","high"
"46","safe","claim","51","blue-203","red-92","risky","safe","4909","bandit-task","56","461118","0.0-52.0","21617","high"
"47","safe","claim","50","blue-189","red-26","risky","safe","2147","bandit-task","57","467305","0.0-53.0","21617","high"
"48","safe","claim","50","blue-143","red-112","risky","safe","734","bandit-task","58","471808","0.0-54.0","21617","high"
"49","safe","claim","50","blue-151","red-99","risky","safe","1031","bandit-task","59","477566","0.0-55.0","21617","high"
"50","safe","claim","49","blue-190","red-192","risky","safe","1396","bandit-task","60","483185","0.0-56.0","21617","high"
"51","safe","claim","51","blue-78","red-176","risky","safe","616","bandit-task","61","488188","0.0-57.0","21617","high"
"52","safe","claim","50","blue-95","red-57","risky","safe","563","bandit-task","62","492537","0.0-58.0","21617","high"
"53","safe","claim","49","blue-174","red-165","risky","safe","824","bandit-task","63","497221","0.0-59.0","21617","high"
"54","safe","claim","50","blue-72","red-166","risky","safe","792","bandit-task","64","502307","0.0-60.0","21617","high"
"55","safe","claim","50","blue-196","red-185","risky","safe","2198","bandit-task","65","509110","0.0-61.0","21617","high"
"56","safe","claim","52","blue-52","red-54","risky","safe","1126","bandit-task","66","515399","0.0-62.0","21617","high"
"57","safe","claim","50","blue-46","red-11","risky","safe","718","bandit-task","67","521075","0.0-63.0","21617","high"
"58","safe","claim","50","blue-3","red-40","risky","safe","1192","bandit-task","68","525924","0.0-64.0","21617","high"
"59","safe","claim","49","blue-178","red-31","risky","safe","546","bandit-task","69","529749","0.0-65.0","21617","high"
"60","safe","claim","48","blue-104","red-22","risky","safe","775","bandit-task","70","534229","0.0-66.0","21617","high"
"61","safe","claim","50","blue-48","red-67","risky","safe","2361","bandit-task","71","540316","0.0-67.0","21617","high"
"62","safe","claim","50","blue-88","red-50","risky","safe","739","bandit-task","72","544788","0.0-68.0","21617","high"
"63","safe","claim","50","blue-188","red-44","risky","safe","6563","bandit-task","73","555115","0.0-69.0","21617","high"
"64","safe","claim","49","blue-19","red-23","risky","safe","533","bandit-task","74","559344","0.0-70.0","21617","high"
"65","safe","claim","50","blue-76","red-107","risky","safe","530","bandit-task","75","563808","0.0-71.0","21617","high"
"66","safe","claim","50","blue-70","red-96","risky","safe","513","bandit-task","76","567859","0.0-72.0","21617","high"
"67","safe","claim","50","blue-156","red-25","risky","safe","572","bandit-task","77","572405","0.0-73.0","21617","high"
"68","safe","claim","50","blue-162","red-138","risky","safe","522","bandit-task","78","576623","0.0-74.0","21617","high"
"69","safe","claim","48","blue-86","red-204","risky","safe","550","bandit-task","79","581174","0.0-75.0","21617","high"
"70","safe","claim","51","blue-158","red-136","risky","safe","547","bandit-task","80","585925","0.0-76.0","21617","high"
"71","safe","claim","49","blue-83","red-195","risky","safe","588","bandit-task","81","590733","0.0-77.0","21617","high"
"72","safe","claim","51","blue-21","red-10","risky","safe","547","bandit-task","82","595677","0.0-78.0","21617","high"
"73","safe","claim","51","blue-155","red-69","risky","safe","1132","bandit-task","83","600637","0.0-79.0","21617","high"
"74","safe","claim","52","blue-73","red-7","risky","safe","1203","bandit-task","84","605609","0.0-80.0","21617","high"
"75","safe","claim","52","blue-191","red-180","risky","safe","1112","bandit-task","85","611418","0.0-81.0","21617","high"
"76","safe","claim","50","blue-90","red-15","risky","safe","1423","bandit-task","86","617145","0.0-82.0","21617","high"
"77","safe","claim","50","blue-182","red-101","risky","safe","1877","bandit-task","87","622961","0.0-83.0","21617","high"
"78","safe","claim","50","blue-141","red-82","risky","safe","1297","bandit-task","88","627945","0.0-84.0","21617","high"
"79","safe","claim","52","blue-29","red-102","risky","safe","620","bandit-task","89","631950","0.0-85.0","21617","high"
"80","safe","claim","48","blue-108","red-79","risky","safe","570","bandit-task","90","635849","0.0-86.0","21617","high"
"81","safe","claim","50","blue-137","red-124","risky","safe","563","bandit-task","91","639780","0.0-87.0","21617","high"
"82","safe","claim","50","blue-75","red-183","risky","safe","544","bandit-task","92","644114","0.0-88.0","21617","high"
"83","safe","claim","48","blue-119","red-172","risky","safe","520","bandit-task","93","648421","0.0-89.0","21617","high"
"84","safe","claim","50","blue-47","red-53","risky","safe","537","bandit-task","94","652991","0.0-90.0","21617","high"
"85","safe","claim","49","blue-98","red-80","risky","safe","506","bandit-task","95","657265","0.0-91.0","21617","high"
"86","safe","claim","51","blue-87","red-160","risky","safe","556","bandit-task","96","661343","0.0-92.0","21617","high"
"87","safe","claim","49","blue-33","red-153","risky","safe","529","bandit-task","97","665044","0.0-93.0","21617","high"
"88","safe","claim","49","blue-39","red-97","risky","safe","638","bandit-task","98","668975","0.0-94.0","21617","high"
"89","safe","claim","51","blue-145","red-41","risky","safe","619","bandit-task","99","672962","0.0-95.0","21617","high"
"90","safe","claim","50","blue-85","red-32","risky","safe","588","bandit-task","100","676934","0.0-96.0","21617","high"
"91","safe","claim","49","blue-110","red-109","risky","safe","537","bandit-task","101","680980","0.0-97.0","21617","high"
"92","safe","claim","51","blue-150","red-63","risky","safe","538","bandit-task","102","684927","0.0-98.0","21617","high"
"93","safe","claim","50","blue-24","red-202","risky","safe","520","bandit-task","103","688808","0.0-99.0","21617","high"
"94","safe","claim","48","blue-17","red-94","risky","safe","553","bandit-task","104","693230","0.0-100.0","21617","high"
"95","safe","claim","51","blue-194","red-113","risky","safe","546","bandit-task","105","697525","0.0-101.0","21617","high"
"96","safe","claim","50","blue-179","red-111","risky","safe","1411","bandit-task","106","702484","0.0-102.0","21617","high"
"97","safe","claim","49","blue-68","red-27","risky","safe","615","bandit-task","107","706402","0.0-103.0","21617","high"
"98","safe","claim","50","blue-20","red-140","risky","safe","463","bandit-task","108","709824","0.0-104.0","21617","high"
"99","safe","claim","50","blue-13","red-38","risky","safe","537","bandit-task","109","713360","0.0-105.0","21617","high"
