"trial","choice","action","feedback","left_stimulus","right_stimulus","left_option","right_option","rt","trial_type","trial_index","time_elapsed","internal_node_id","participant","condition"
"0","safe","observe","51","red-145","blue-19","safe","risky","13483","bandit-task","7","917233","0.0-6.0","21578","high"
"1","risky","claim","25","red-164","blue-51","safe","risky","6459","bandit-task","8","952838","0.0-7.0","21578","high"
"2","safe","observe","50","red-189","blue-180","safe","risky","36833","bandit-task","9","1001043","0.0-8.0","21578","high"
"3","safe","claim","50","red-48","blue-81","safe","risky","8157","bandit-task","10","1060860","0.0-9.0","21578","high"
"4","risky","observe","39","red-177","blue-114","safe","risky","15272","bandit-task","11","1084350","0.0-10.0","21578","high"
"5","risky","claim","29","red-124","blue-45","safe","risky","3242","bandit-task","12","1091691","0.0-11.0","21578","high"
"6","risky","claim","33","red-71","blue-27","safe","risky","5374","bandit-task","13","1101336","0.0-12.0","21578","high"
"7","safe","observe","51","red-67","blue-83","safe","risky","3425","bandit-task","14","1110591","0.0-13.0","21578","high"
"8","safe","claim","51","red-108","blue-127","safe","risky","4251","bandit-task","15","1118719","0.0-14.0","21578","high"
"9","risky","observe","75","red-130","blue-62","safe","risky","17693","bandit-task","16","1139870","0.0-15.0","21578","high"
"10","safe","claim","50","red-146","blue-34","safe","risky","3501","bandit-task","17","1147002","0.0-16.0","21578","high"
"11","safe","observe","50","red-72","blue-143","safe","risky","6318","bandit-task","18","1156684","0.0-17.0","21578","high"
"12","safe","observe","51","red-63","blue-46","safe","risky","8654","bandit-task","19","1169105","0.0-18.0","21578","high"
"13","risky","claim","79","red-132","blue-110","safe","risky","1247","bandit-task","20","1174832","0.0-19.0","21578","high"
"14","safe","claim","49","red-129","blue-68","safe","risky","2313","bandit-task","21","1182483","0.0-20.0","21578","high"
"15","risky","claim","71","red-75","blue-53","safe","risky","1461","bandit-task","22","1187680","0.0-21.0","21578","high"
"16","risky","observe","60","red-190","blue-158","safe","risky","1123","bandit-task","23","1192343","0.0-22.0","21578","high"
"17","safe","claim","48","red-172","blue-29","safe","risky","4736","bandit-task","24","1200324","0.0-23.0","21578","high"
"18","safe","observe","49","red-101","blue-161","safe","risky","1893","bandit-task","25","1205580","0.0-24.0","21578","high"
"19","risky","claim","77","red-87","blue-156","safe","risky","1426","bandit-task","26","1212474","0.0-25.0","21578","high"
"20","risky","observe","86","red-77","blue-66","safe","risky","1892","bandit-task","27","1219609","0.0-26.0","21578","high"
"21","risky","claim","29","red-128","blue-168","safe","risky","4042","bandit-task","28","1228948","0.0-27.0","21578","high"
"22","safe","claim","50","red-100","blue-166","safe","risky","6517","bandit-task","29","1239296","0.0-28.0","21578","high"
"23","safe","claim","51","red-198","blue-96","safe","risky","5301","bandit-task","30","1248625","0.0-29.0","21578","high"
"24","risky","claim","74","red-98","blue-155","safe","risky","2019","bandit-task","31","1254443","0.0-30.0","21578","high"
"25","risky","observe","36","red-165","blue-183","safe","risky","1827","bandit-task","32","1262706","0.0-31.0","21578","high"
"26","safe","observe","49","red-119","blue-55","safe","risky","3934","bandit-task","33","1269970","0.0-32.0","21578","high"
"27","risky","observe","31","red-179","blue-28","safe","risky","4406","bandit-task","34","1277701","0.0-33.0","21578","high"
"28","safe","claim","51","red-170","blue-121","safe","risky","4765","bandit-task","35","1285947","0.0-34.0","21578","high"
"29","risky","claim","69","red-59","blue-3","safe","risky","6837","bandit-task","36","1296126","0.0-35.0","21578","high"
"30","safe","observe","50","red-181","blue-38","safe","risky","9246","bandit-task","37","1310749","0.0-36.0","21578","high"
"31","safe","observe","48","red-60","blue-78","safe","risky","4588","bandit-task","38","1318551","0.0-37.0","21578","high"
"32","risky","claim","41","red-122","blue-193","safe","risky","4269","bandit-task","39","1326046","0.0-38.0","21578","high"
"33","safe","claim","49","red-123","blue-6","safe","risky","4643","bandit-task","40","1334210","0.0-39.0","21578","high"
"34","risky","claim","56","red-106","blue-56","safe","risky","6258","bandit-task","41","1344539","0.0-40.0","21578","high"
"35","risky","observe","67","red-149","blue-141","safe","risky","5320","bandit-task","42","1353174","0.0-41.0","21578","high"
"36","risky","claim","33","red-151","blue-195","safe","risky","3119","bandit-task","43","1360894","0.0-42.0","21578","high"
"37","risky","claim","80","red-80","blue-32","safe","risky","2085","bandit-task","44","1367148","0.0-43.0","21578","high"
"38","risky","observe","71","red-76","blue-5","safe","risky","1681","bandit-task","45","1371996","0.0-44.0","21578","high"
"39","safe","claim","50","red-199","blue-70","safe","risky","2896","bandit-task","46","1378567","0.0-45.0","21578","high"
"40","safe","claim","52","red-134","blue-25","safe","risky","4573","bandit-task","47","1387374","0.0-46.0","21578","high"
"41","safe","observe","50","red-90","blue-148","safe","risky","4673","bandit-task","48","1398856","0.0-47.0","21578","high"
"42","risky","observe","20","red-105","blue-44","safe","risky","4385","bandit-task","49","1406344","0.0-48.0","21578","high"
"43","safe","observe","51","red-9","blue-200","safe","risky","6352","bandit-task","50","1418443","0.0-49.0","21578","high"
"44","safe","claim","49","red-191","blue-64","safe","risky","2963","bandit-task","51","1426582","0.0-50.0","21578","high"
"45","risky","claim","40","red-36","blue-173","safe","risky","3767","bandit-task","52","1433546","0.0-51.0","21578","high"
"46","risky","claim","31","red-115","blue-136","safe","risky","4061","bandit-task","53","1441480","0.0-52.0","21578","high"
"47","risky","claim","25","red-22","blue-186","safe","risky","4269","bandit-task","54","1449060","0.0-53.0","21578","high"
"48","safe","claim","50","red-54","blue-111","safe","risky","6887","bandit-task","55","1459212","0.0-54.0","21578","high"
"49","risky","claim","27","red-107","blue-13","safe","risky","2994","bandit-task","56","1465446","0.0-55.0","21578","high"
"50","risky","claim","31","red-150","blue-162","safe","risky","3866","bandit-task","57","1472658","0.0-56.0","21578","high"
"51","safe","claim","48","red-184","blue-117","safe","risky","3412","bandit-task","58","1479382","0.0-57.0","21578","high"
"52","risky","claim","73","red-18","blue-160","safe","risky","3088","bandit-task","59","1486152","0.0-58.0","21578","high"
"53","safe","claim","51","red-91","blue-140","safe","risky","5972","bandit-task","60","1495771","0.0-59.0","21578","high"
"54","risky","claim","26","red-171","blue-176","safe","risky","3436","bandit-task","61","1503479","0.0-60.0","21578","high"
"55","risky","claim","84","red-185","blue-152","safe","risky","3587","bandit-task","62","1510099","0.0-61.0","21578","high"
"56","safe","claim","50","red-204","blue-142","safe","risky","4138","bandit-task","63","1518146","0.0-62.0","21578","high"
"57","risky","claim","35","red-93","blue-14","safe","risky","3643","bandit-task","64","1525024","0.0-63.0","21578","high"
"58","risky","claim","32","red-23","blue-125","safe","risky","4684","bandit-task","65","1533107","0.0-64.0","21578","high"
"59","safe","observe","48","red-163","blue-157","safe","risky","7366","bandit-task","66","1545038","0.0-65.0","21578","high"
"60","safe","observe","50","red-26","blue-12","safe","risky","6222","bandit-task","67","1554498","0.0-66.0","21578","high"
"61","risky","observe","65","red-69","blue-43","safe","risky","5554","bandit-task","68","1564530","0.0-67.0","21578","high"
"62","safe","claim","50","red-120","blue-74","safe","risky","6357","bandit-task","69","1574155","0.0-68.0","21578","high"
"63","risky","claim","79","red-194","blue-84","safe","risky","3126","bandit-task","70","1580440","0.0-69.0","21578","high"
"64","risky","claim","85","red-202","blue-21","safe","risky","2807","bandit-task","71","1586601","0.0-70.0","21578","high"
"65","safe","claim","51","red-57","blue-52","safe","risky","2891","bandit-task","72","1593023","0.0-71.0","21578","high"
"66","risky","claim","80","red-169","blue-135","safe","risky","6382","bandit-task","73","1604012","0.0-72.0","21578","high"
"67","safe","claim","49","red-109","blue-201","safe","risky","4433","bandit-task","74","1611849","0.0-73.0","21578","high"
"68","risky","claim","19","red-39","blue-79","safe","risky","2740","bandit-task","75","1617924","0.0-74.0","21578","high"
"69","safe","claim","50","red-203","blue-97","safe","risky","4870","bandit-task","76","1626184","0.0-75.0","21578","high"
"70","safe","claim","49","red-41","blue-73","safe","risky","4725","bandit-task","77","1635275","0.0-76.0","21578","high"
"71","risky","claim","64","red-10","blue-112","safe","risky","10909","bandit-task","78","1649764","0.0-77.0","21578","high"
"72","risky","claim","75","red-15","blue-24","safe","risky","6559","bandit-task","79","1659888","0.0-78.0","21578","high"
"73","risky","claim","34","red-126","blue-153","safe","risky","4310","bandit-task","80","1667669","0.0-79.0","21578","high"
"74","safe","claim","51","red-187","blue-197","safe","risky","3723","bandit-task","81","1674417","0.0-80.0","21578","high"
"75","risky","claim","67","red-131","blue-174","safe","risky","5358","bandit-task","82","1683195","0.0-81.0","21578","high"
"76","safe","claim","50","red-61","blue-50","safe","risky","3066","bandit-task","83","1689340","0.0-82.0","21578","high"
"77","safe","claim","49","red-49","blue-159","safe","risky","4120","bandit-task","84","1696492","0.0-83.0","21578","high"
"78","risky","claim","23","red-178","blue-11","safe","risky","2685","bandit-task","85","1703017","0.0-84.0","21578","high"
"79","safe","claim","48","red-167","blue-175","safe","risky","3889","bandit-task","86","1710330","0.0-85.0","21578","high"
"80","safe","claim","50","red-33","blue-154","safe","risky","4218","bandit-task","87","1717877","0.0-86.0","21578","high"
"81","risky","claim","23","red-103","blue-86","safe","risky","2702","bandit-task","88","1723740","0.0-87.0","21578","high"
"82","risky","claim","49","red-116","blue-113","safe","risky","3773","bandit-task","89","1730835","0.0-88.0","21578","high"
"83","risky","claim","55","red-2","blue-89","safe","risky","3613","bandit-task","90","1737412","0.0-89.0","21578","high"
"84","risky","claim","27","red-20","blue-138","safe","risky","2472","bandit-task","91","1742870","0.0-90.0","21578","high"
"85","risky","claim","65","red-192","blue-144","safe","risky","2529","bandit-task","92","1748499","0.0-91.0","21578","high"
"86","safe","claim","48","red-31","blue-35","safe","risky","3207","bandit-task","93","1754548","0.0-92.0","21578","high"
"87","safe","claim","51","red-85","blue-17","safe","risky","3074","bandit-task","94","1761989","0.0-93.0","21578","high"
"88","risky","claim","41","red-40","blue-118","safe","risky","20054","bandit-task","95","1788636","0.0-94.0","21578","high"
"89","safe","claim","50","red-58","blue-133","safe","risky","14352","bandit-task","96","1806316","0.0-95.0","21578","high"
"90","safe","claim","50","red-30","blue-95","safe","risky","3463","bandit-task","97","1812941","0.0-96.0","21578","high"
"91","safe","claim","50","red-196","blue-139","safe","risky","2402","bandit-task","98","1818890","0.0-97.0","21578","high"
"92","risky","claim","90","red-82","blue-1","safe","risky","5054","bandit-task","99","1827743","0.0-98.0","21578","high"
"93","risky","claim","27","red-42","blue-104","safe","risky","3914","bandit-task","100","1834834","0.0-99.0","21578","high"
"94","risky","claim","37","red-7","blue-99","safe","risky","4902","bandit-task","101","1842861","0.0-100.0","21578","high"
"95","safe","claim","50","red-4","blue-94","safe","risky","18802","bandit-task","102","1865540","0.0-101.0","21578","high"
"96","safe","claim","50","red-37","blue-102","safe","risky","4417","bandit-task","103","1873009","0.0-102.0","21578","high"
"97","risky","claim","53","red-16","blue-47","safe","risky","6064","bandit-task","104","1882471","0.0-103.0","21578","high"
"98","risky","claim","81","red-137","blue-8","safe","risky","3540","bandit-task","105","1889726","0.0-104.0","21578","high"
"99","safe","claim","51","red-147","blue-182","safe","risky","756","bandit-task","106","1894330","0.0-105.0","21578","high"
