"trial","choice","action","feedback","left_stimulus","right_stimulus","left_option","right_option","rt","trial_type","trial_index","time_elapsed","internal_node_id","participant","condition"
"0","safe","observe","51","red-161","blue-25","safe","risky","5897","bandit-task","13","2732173","0.0-6.0","20867","high"
"1","risky","observe","73","red-106","blue-63","safe","risky","4624","bandit-task","14","2741544","0.0-7.0","20867","high"
"2","risky","observe","50","red-201","blue-142","safe","risky","2369","bandit-task","15","2748218","0.0-8.0","20867","high"
"3","risky","observe","40","red-55","blue-27","safe","risky","1847","bandit-task","16","2753872","0.0-9.0","20867","high"
"4","safe","observe","49","red-93","blue-12","safe","risky","1080","bandit-task","17","2758857","0.0-10.0","20867","high"
"5","safe","observe","51","red-40","blue-76","safe","risky","1129","bandit-task","18","2763295","0.0-11.0","20867","high"
"6","safe","observe","50","red-119","blue-138","safe","risky","2351","bandit-task","19","2769294","0.0-12.0","20867","high"
"7","safe","observe","50","red-49","blue-123","safe","risky","1438","bandit-task","20","2774261","0.0-13.0","20867","high"
"8","risky","observe","76","red-38","blue-67","safe","risky","912","bandit-task","21","2778475","0.0-14.0","20867","high"
"9","safe","claim","50","red-82","blue-173","safe","risky","911","bandit-task","22","2783803","0.0-15.0","20867","high"
"10","risky","claim","41","red-29","blue-147","safe","risky","1819","bandit-task","23","2789553","0.0-16.0","20867","high"
"11","safe","claim","49","red-48","blue-196","safe","risky","2757","bandit-task","24","2795917","0.0-17.0","20867","high"
"12","risky","claim","71","red-10","blue-46","safe","risky","1902","bandit-task","25","2801670","0.0-18.0","20867","high"
"13","safe","claim","49","red-160","blue-156","safe","risky","1290","bandit-task","26","2813245","0.0-19.0","20867","high"
"14","risky","claim","23","red-129","blue-203","safe","risky","1760","bandit-task","27","2818959","0.0-20.0","20867","high"
"15","safe","claim","49","red-162","blue-181","safe","risky","2535","bandit-task","28","2825365","0.0-21.0","20867","high"
"16","safe","claim","50","red-202","blue-149","safe","risky","3169","bandit-task","29","2832439","0.0-22.0","20867","high"
"17","safe","claim","50","red-128","blue-109","safe","risky","2075","bandit-task","30","2838185","0.0-23.0","20867","high"
"18","safe","claim","53","red-85","blue-164","safe","risky","2129","bandit-task","31","2843963","0.0-24.0","20867","high"
"19","risky","claim","73","red-178","blue-155","safe","risky","3840","bandit-task","32","2851632","0.0-25.0","20867","high"
"20","safe","claim","51","red-32","blue-87","safe","risky","4724","bandit-task","33","2864100","0.0-26.0","20867","high"
"21","safe","claim","50","red-116","blue-72","safe","risky","2945","bandit-task","34","2870984","0.0-27.0","20867","high"
"22","safe","claim","49","red-188","blue-195","safe","risky","2619","bandit-task","35","2877732","0.0-28.0","20867","high"
"23","risky","claim","68","red-70","blue-146","safe","risky","1626","bandit-task","36","2883231","0.0-29.0","20867","high"
"24","risky","claim","72","red-115","blue-133","safe","risky","2331","bandit-task","37","2888924","0.0-30.0","20867","high"
"25","safe","claim","50","red-111","blue-165","safe","risky","1760","bandit-task","38","2894842","0.0-31.0","20867","high"
"26","risky","claim","25","red-140","blue-91","safe","risky","1424","bandit-task","39","2906795","0.0-32.0","20867","high"
"27","safe","claim","49","red-90","blue-193","safe","risky","6947","bandit-task","40","2919591","0.0-33.0","20867","high"
"28","safe","claim","51","red-16","blue-22","safe","risky","17998","bandit-task","41","2941295","0.0-34.0","20867","high"
"29","risky","claim","23","red-66","blue-88","safe","risky","3677","bandit-task","42","2948726","0.0-35.0","20867","high"
"30","safe","claim","50","red-169","blue-113","safe","risky","1203","bandit-task","43","2953324","0.0-36.0","20867","high"
"31","risky","claim","15","red-71","blue-20","safe","risky","1362","bandit-task","44","2958846","0.0-37.0","20867","high"
"32","safe","claim","49","red-117","blue-77","safe","risky","1795","bandit-task","45","2964094","0.0-38.0","20867","high"
"33","risky","claim","33","red-59","blue-118","safe","risky","1434","bandit-task","46","2969322","0.0-39.0","20867","high"
"34","safe","claim","50","red-57","blue-177","safe","risky","2081","bandit-task","47","2975012","0.0-40.0","20867","high"
"35","risky","claim","22","red-184","blue-86","safe","risky","1552","bandit-task","48","2980536","0.0-41.0","20867","high"
"36","safe","claim","50","red-151","blue-183","safe","risky","1372","bandit-task","49","2986089","0.0-42.0","20867","high"
"37","risky","claim","77","red-61","blue-78","safe","risky","1211","bandit-task","50","2990853","0.0-43.0","20867","high"
"38","risky","claim","44","red-192","blue-3","safe","risky","2027","bandit-task","51","2996509","0.0-44.0","20867","high"
"39","risky","claim","70","red-130","blue-154","safe","risky","2760","bandit-task","52","3002815","0.0-45.0","20867","high"
"40","risky","claim","24","red-19","blue-124","safe","risky","1430","bandit-task","53","3007470","0.0-46.0","20867","high"
"41","safe","claim","48","red-107","blue-2","safe","risky","2326","bandit-task","54","3013820","0.0-47.0","20867","high"
"42","safe","claim","51","red-11","blue-152","safe","risky","1871","bandit-task","55","3019141","0.0-48.0","20867","high"
"43","risky","claim","63","red-144","blue-137","safe","risky","1773","bandit-task","56","3024069","0.0-49.0","20867","high"
"44","safe","claim","49","red-6","blue-191","safe","risky","1452","bandit-task","57","3028669","0.0-50.0","20867","high"
"45","safe","claim","50","red-44","blue-15","safe","risky","2413","bandit-task","58","3034590","0.0-51.0","20867","high"
"46","safe","claim","48","red-83","blue-145","safe","risky","1432","bandit-task","59","3040001","0.0-52.0","20867","high"
"47","risky","claim","28","red-21","blue-179","safe","risky","2624","bandit-task","60","3046533","0.0-53.0","20867","high"
"48","safe","claim","50","red-167","blue-134","safe","risky","1324","bandit-task","61","3051877","0.0-54.0","20867","high"
"49","safe","claim","51","red-68","blue-33","safe","risky","1472","bandit-task","62","3057266","0.0-55.0","20867","high"
"50","risky","claim","33","red-79","blue-54","safe","risky","1465","bandit-task","63","3062462","0.0-56.0","20867","high"
"51","risky","claim","23","red-103","blue-143","safe","risky","3396","bandit-task","64","3069700","0.0-57.0","20867","high"
"52","safe","claim","50","red-187","blue-26","safe","risky","1477","bandit-task","65","3074724","0.0-58.0","20867","high"
"53","safe","claim","52","red-108","blue-43","safe","risky","1623","bandit-task","66","3086976","0.0-59.0","20867","high"
"54","risky","claim","43","red-135","blue-7","safe","risky","1587","bandit-task","67","3092109","0.0-60.0","20867","high"
"55","risky","claim","44","red-166","blue-13","safe","risky","3554","bandit-task","68","3099494","0.0-61.0","20867","high"
"56","safe","claim","50","red-36","blue-95","safe","risky","1053","bandit-task","69","3103871","0.0-62.0","20867","high"
"57","risky","claim","62","red-197","blue-42","safe","risky","2290","bandit-task","70","3111213","0.0-63.0","20867","high"
"58","safe","claim","48","red-60","blue-9","safe","risky","1076","bandit-task","71","3116874","0.0-64.0","20867","high"
"59","risky","claim","32","red-171","blue-1","safe","risky","3990","bandit-task","72","3128690","0.0-65.0","20867","high"
"60","safe","claim","49","red-199","blue-174","safe","risky","1262","bandit-task","73","3133424","0.0-66.0","20867","high"
"61","safe","claim","52","red-159","blue-37","safe","risky","1826","bandit-task","74","3139049","0.0-67.0","20867","high"
"62","risky","claim","28","red-148","blue-153","safe","risky","1485","bandit-task","75","3144465","0.0-68.0","20867","high"
"63","safe","claim","49","red-74","blue-200","safe","risky","1909","bandit-task","76","3150113","0.0-69.0","20867","high"
"64","risky","claim","21","red-170","blue-105","safe","risky","1489","bandit-task","77","3155499","0.0-70.0","20867","high"
"65","safe","claim","51","red-41","blue-62","safe","risky","1555","bandit-task","78","3160471","0.0-71.0","20867","high"
"66","risky","claim","21","red-65","blue-81","safe","risky","1009","bandit-task","79","3165087","0.0-72.0","20867","high"
"67","risky","claim","38","red-110","blue-92","safe","risky","1406","bandit-task","80","3170093","0.0-73.0","20867","high"
"68","risky","claim","38","red-158","blue-96","safe","risky","1721","bandit-task","81","3175338","0.0-74.0","20867","high"
"69","safe","claim","49","red-94","blue-102","safe","risky","1621","bandit-task","82","3181200","0.0-75.0","20867","high"
"70","risky","claim","31","red-39","blue-127","safe","risky","1347","bandit-task","83","3186205","0.0-76.0","20867","high"
"71","risky","claim","32","red-52","blue-163","safe","risky","1703","bandit-task","84","3191457","0.0-77.0","20867","high"
"72","safe","claim","49","red-47","blue-56","safe","risky","1833","bandit-task","85","3197228","0.0-78.0","20867","high"
"73","safe","claim","50","red-45","blue-58","safe","risky","3257","bandit-task","86","3203909","0.0-79.0","20867","high"
"74","safe","claim","49","red-190","blue-114","safe","risky","1761","bandit-task","87","3209061","0.0-80.0","20867","high"
"75","safe","claim","50","red-180","blue-89","safe","risky","1069","bandit-task","88","3213741","0.0-81.0","20867","high"
"76","risky","claim","29","red-98","blue-150","safe","risky","1292","bandit-task","89","3218554","0.0-82.0","20867","high"
"77","safe","claim","51","red-204","blue-141","safe","risky","1394","bandit-task","90","3223238","0.0-83.0","20867","high"
"78","safe","claim","52","red-132","blue-99","safe","risky","1386","bandit-task","91","3228146","0.0-84.0","20867","high"
"79","safe","claim","51","red-50","blue-185","safe","risky","1575","bandit-task","92","3232952","0.0-85.0","20867","high"
"80","risky","claim","15","red-64","blue-97","safe","risky","1978","bandit-task","93","3239019","0.0-86.0","20867","high"
"81","safe","claim","49","red-168","blue-80","safe","risky","1050","bandit-task","94","3243663","0.0-87.0","20867","high"
"82","risky","claim","21","red-104","blue-125","safe","risky","1773","bandit-task","95","3249343","0.0-88.0","20867","high"
"83","safe","claim","52","red-18","blue-198","safe","risky","1354","bandit-task","96","3254311","0.0-89.0","20867","high"
"84","safe","claim","50","red-4","blue-73","safe","risky","1674","bandit-task","97","3259692","0.0-90.0","20867","high"
"85","risky","claim","27","red-157","blue-35","safe","risky","1887","bandit-task","98","3265313","0.0-91.0","20867","high"
"86","safe","claim","51","red-176","blue-189","safe","risky","1311","bandit-task","99","3270098","0.0-92.0","20867","high"
"87","safe","claim","50","red-194","blue-131","safe","risky","1221","bandit-task","100","3274636","0.0-93.0","20867","high"
"88","safe","claim","49","red-186","blue-53","safe","risky","2601","bandit-task","101","3280588","0.0-94.0","20867","high"
"89","risky","claim","36","red-28","blue-126","safe","risky","1306","bandit-task","102","3285261","0.0-95.0","20867","high"
"90","safe","claim","50","red-51","blue-31","safe","risky","988","bandit-task","103","3289727","0.0-96.0","20867","high"
"91","safe","claim","50","red-14","blue-182","safe","risky","977","bandit-task","104","3294016","0.0-97.0","20867","high"
"92","risky","claim","41","red-139","blue-120","safe","risky","1271","bandit-task","105","3298389","0.0-98.0","20867","high"
"93","safe","claim","48","red-122","blue-75","safe","risky","975","bandit-task","106","3302879","0.0-99.0","20867","high"
"94","safe","claim","50","red-5","blue-84","safe","risky","1532","bandit-task","107","3307851","0.0-100.0","20867","high"
"95","risky","claim","32","red-69","blue-24","safe","risky","1141","bandit-task","108","3312689","0.0-101.0","20867","high"
"96","safe","claim","50","red-30","blue-112","safe","risky","755","bandit-task","109","3317573","0.0-102.0","20867","high"
"97","safe","claim","52","red-101","blue-172","safe","risky","960","bandit-task","110","3322073","0.0-103.0","20867","high"
"98","safe","claim","50","red-8","blue-17","safe","risky","1047","bandit-task","111","3326927","0.0-104.0","20867","high"
"99","safe","claim","48","red-121","blue-100","safe","risky","973","bandit-task","112","3331576","0.0-105.0","20867","high"
