"trial","choice","action","feedback","left_stimulus","right_stimulus","left_option","right_option","rt","trial_type","trial_index","time_elapsed","internal_node_id","participant","condition"
"0","safe","claim","51","red-180","blue-195","risky","safe","7138","bandit-task","7","226742","0.0-6.0","20212","high"
"1","risky","observe","79","red-113","blue-42","risky","safe","2046","bandit-task","8","234261","0.0-7.0","20212","high"
"2","safe","observe","51","red-188","blue-15","risky","safe","1239","bandit-task","9","240382","0.0-8.0","20212","high"
"3","risky","claim","49","red-94","blue-131","risky","safe","942","bandit-task","10","245421","0.0-9.0","20212","high"
"4","risky","claim","26","red-129","blue-53","risky","safe","4150","bandit-task","11","253966","0.0-10.0","20212","high"
"5","safe","observe","51","red-45","blue-101","risky","safe","492","bandit-task","12","259597","0.0-11.0","20212","high"
"6","safe","claim","49","red-72","blue-204","risky","safe","1181","bandit-task","13","265367","0.0-12.0","20212","high"
"7","safe","observe","50","red-50","blue-185","risky","safe","3697","bandit-task","14","272998","0.0-13.0","20212","high"
"8","risky","observe","51","red-11","blue-17","risky","safe","1252","bandit-task","15","277910","0.0-14.0","20212","high"
"9","safe","observe","52","red-105","blue-57","risky","safe","1517","bandit-task","16","283062","0.0-15.0","20212","high"
"10","risky","claim","83","red-127","blue-66","risky","safe","1213","bandit-task","17","288318","0.0-16.0","20212","high"
"11","safe","claim","50","red-73","blue-88","risky","safe","645","bandit-task","18","294214","0.0-17.0","20212","high"
"12","safe","claim","50","red-137","blue-124","risky","safe","1613","bandit-task","19","299782","0.0-18.0","20212","high"
"13","risky","claim","82","red-169","blue-43","risky","safe","806","bandit-task","20","304672","0.0-19.0","20212","high"
"14","safe","observe","51","red-117","blue-114","risky","safe","775","bandit-task","21","309910","0.0-20.0","20212","high"
"15","safe","claim","49","red-59","blue-54","risky","safe","692","bandit-task","22","315085","0.0-21.0","20212","high"
"16","risky","observe","28","red-179","blue-135","risky","safe","731","bandit-task","23","319774","0.0-22.0","20212","high"
"17","risky","claim","65","red-91","blue-68","risky","safe","835","bandit-task","24","324389","0.0-23.0","20212","high"
"18","safe","observe","48","red-123","blue-184","risky","safe","397","bandit-task","25","328526","0.0-24.0","20212","high"
"19","risky","observe","76","red-31","blue-153","risky","safe","1714","bandit-task","26","334086","0.0-25.0","20212","high"
"20","risky","claim","62","red-120","blue-163","risky","safe","965","bandit-task","27","338997","0.0-26.0","20212","high"
"21","safe","observe","48","red-36","blue-152","risky","safe","1477","bandit-task","28","344350","0.0-27.0","20212","high"
"22","risky","observe","28","red-21","blue-171","risky","safe","1883","bandit-task","29","349982","0.0-28.0","20212","high"
"23","safe","claim","49","red-106","blue-140","risky","safe","1269","bandit-task","30","355213","0.0-29.0","20212","high"
"24","risky","observe","30","red-148","blue-33","risky","safe","551","bandit-task","31","359573","0.0-30.0","20212","high"
"25","safe","claim","51","red-199","blue-144","risky","safe","517","bandit-task","32","363941","0.0-31.0","20212","high"
"26","risky","claim","28","red-29","blue-154","risky","safe","902","bandit-task","33","369381","0.0-32.0","20212","high"
"27","safe","claim","49","red-75","blue-193","risky","safe","1472","bandit-task","34","374781","0.0-33.0","20212","high"
"28","safe","claim","48","red-197","blue-187","risky","safe","1212","bandit-task","35","380821","0.0-34.0","20212","high"
"29","risky","observe","27","red-82","blue-61","risky","safe","606","bandit-task","36","386893","0.0-35.0","20212","high"
"30","safe","observe","50","red-13","blue-156","risky","safe","885","bandit-task","37","391566","0.0-36.0","20212","high"
"31","risky","observe","56","red-80","blue-32","risky","safe","987","bandit-task","38","396006","0.0-37.0","20212","high"
"32","safe","observe","50","red-182","blue-93","risky","safe","924","bandit-task","39","400661","0.0-38.0","20212","high"
"33","risky","observe","44","red-6","blue-87","risky","safe","909","bandit-task","40","405151","0.0-39.0","20212","high"
"34","risky","observe","60","red-192","blue-52","risky","safe","1019","bandit-task","41","409456","0.0-40.0","20212","high"
"35","risky","claim","29","red-86","blue-92","risky","safe","1590","bandit-task","42","414541","0.0-41.0","20212","high"
"36","risky","claim","37","red-175","blue-196","risky","safe","1349","bandit-task","43","420022","0.0-42.0","20212","high"
"37","safe","claim","51","red-155","blue-181","risky","safe","1410","bandit-task","44","425013","0.0-43.0","20212","high"
"38","risky","claim","23","red-172","blue-174","risky","safe","645","bandit-task","45","429389","0.0-44.0","20212","high"
"39","safe","claim","51","red-189","blue-162","risky","safe","1102","bandit-task","46","434237","0.0-45.0","20212","high"
"40","safe","claim","50","red-69","blue-170","risky","safe","1733","bandit-task","47","439519","0.0-46.0","20212","high"
"41","risky","claim","68","red-177","blue-168","risky","safe","1032","bandit-task","48","444173","0.0-47.0","20212","high"
"42","safe","observe","51","red-157","blue-76","risky","safe","796","bandit-task","49","448244","0.0-48.0","20212","high"
"43","risky","observe","34","red-26","blue-151","risky","safe","655","bandit-task","50","452158","0.0-49.0","20212","high"
"44","risky","observe","73","red-110","blue-67","risky","safe","941","bandit-task","51","456358","0.0-50.0","20212","high"
"45","safe","claim","51","red-60","blue-161","risky","safe","796","bandit-task","52","460926","0.0-51.0","20212","high"
"46","safe","claim","49","red-35","blue-12","risky","safe","629","bandit-task","53","465294","0.0-52.0","20212","high"
"47","risky","claim","25","red-41","blue-116","risky","safe","579","bandit-task","54","469974","0.0-53.0","20212","high"
"48","risky","claim","20","red-30","blue-146","risky","safe","636","bandit-task","55","474181","0.0-54.0","20212","high"
"49","safe","claim","51","red-40","blue-160","risky","safe","5667","bandit-task","56","484782","0.0-55.0","20212","high"
"50","risky","claim","69","red-74","blue-164","risky","safe","587","bandit-task","57","489701","0.0-56.0","20212","high"
"51","safe","claim","49","red-158","blue-128","risky","safe","1694","bandit-task","58","495421","0.0-57.0","20212","high"
"52","safe","claim","50","red-34","blue-198","risky","safe","629","bandit-task","59","499901","0.0-58.0","20212","high"
"53","risky","claim","24","red-138","blue-165","risky","safe","709","bandit-task","60","505190","0.0-59.0","20212","high"
"54","risky","claim","27","red-121","blue-142","risky","safe","786","bandit-task","61","509639","0.0-60.0","20212","high"
"55","safe","observe","51","red-159","blue-186","risky","safe","508","bandit-task","62","514000","0.0-61.0","20212","high"
"56","safe","observe","51","red-71","blue-37","risky","safe","501","bandit-task","63","518630","0.0-62.0","20212","high"
"57","risky","observe","61","red-167","blue-18","risky","safe","675","bandit-task","64","523286","0.0-63.0","20212","high"
"58","risky","observe","53","red-98","blue-24","risky","safe","446","bandit-task","65","527533","0.0-64.0","20212","high"
"59","safe","claim","51","red-112","blue-49","risky","safe","558","bandit-task","66","532454","0.0-65.0","20212","high"
"60","risky","claim","66","red-150","blue-65","risky","safe","523","bandit-task","67","536926","0.0-66.0","20212","high"
"61","safe","claim","50","red-145","blue-122","risky","safe","860","bandit-task","68","541446","0.0-67.0","20212","high"
"62","risky","claim","16","red-102","blue-56","risky","safe","531","bandit-task","69","546062","0.0-68.0","20212","high"
"63","risky","claim","78","red-96","blue-89","risky","safe","1438","bandit-task","70","551470","0.0-69.0","20212","high"
"64","safe","claim","48","red-136","blue-100","risky","safe","676","bandit-task","71","555862","0.0-70.0","20212","high"
"65","safe","claim","50","red-27","blue-44","risky","safe","519","bandit-task","72","560269","0.0-71.0","20212","high"
"66","risky","observe","84","red-3","blue-202","risky","safe","541","bandit-task","73","564581","0.0-72.0","20212","high"
"67","safe","observe","51","red-166","blue-10","risky","safe","615","bandit-task","74","568909","0.0-73.0","20212","high"
"68","risky","observe","76","red-109","blue-55","risky","safe","797","bandit-task","75","572822","0.0-74.0","20212","high"
"69","risky","observe","87","red-25","blue-191","risky","safe","533","bandit-task","76","576615","0.0-75.0","20212","high"
"70","risky","claim","30","red-108","blue-62","risky","safe","523","bandit-task","77","580806","0.0-76.0","20212","high"
"71","risky","claim","88","red-19","blue-176","risky","safe","493","bandit-task","78","585070","0.0-77.0","20212","high"
"72","safe","claim","48","red-97","blue-70","risky","safe","487","bandit-task","79","588869","0.0-78.0","20212","high"
"73","safe","observe","51","red-149","blue-23","risky","safe","981","bandit-task","80","593190","0.0-79.0","20212","high"
"74","risky","claim","72","red-95","blue-64","risky","safe","1176","bandit-task","81","597758","0.0-80.0","20212","high"
"75","safe","claim","51","red-118","blue-58","risky","safe","523","bandit-task","82","602325","0.0-81.0","20212","high"
"76","safe","claim","51","red-48","blue-119","risky","safe","693","bandit-task","83","606830","0.0-82.0","20212","high"
"77","risky","claim","74","red-51","blue-111","risky","safe","1028","bandit-task","84","612286","0.0-83.0","20212","high"
"78","safe","claim","49","red-28","blue-14","risky","safe","2532","bandit-task","85","618894","0.0-84.0","20212","high"
"79","risky","claim","73","red-134","blue-147","risky","safe","873","bandit-task","86","623269","0.0-85.0","20212","high"
"80","safe","claim","49","red-46","blue-200","risky","safe","532","bandit-task","87","627805","0.0-86.0","20212","high"
"81","safe","observe","50","red-104","blue-90","risky","safe","709","bandit-task","88","632134","0.0-87.0","20212","high"
"82","risky","observe","33","red-194","blue-173","risky","safe","978","bandit-task","89","636989","0.0-88.0","20212","high"
"83","risky","observe","25","red-84","blue-81","risky","safe","1264","bandit-task","90","643405","0.0-89.0","20212","high"
"84","risky","claim","29","red-2","blue-22","risky","safe","1245","bandit-task","91","648581","0.0-90.0","20212","high"
"85","safe","claim","51","red-16","blue-190","risky","safe","484","bandit-task","92","654869","0.0-91.0","20212","high"
"86","risky","claim","78","red-47","blue-8","risky","safe","901","bandit-task","93","659750","0.0-92.0","20212","high"
"87","safe","claim","49","red-4","blue-83","risky","safe","940","bandit-task","94","664269","0.0-93.0","20212","high"
"88","risky","claim","71","red-107","blue-5","risky","safe","1085","bandit-task","95","669189","0.0-94.0","20212","high"
"89","risky","claim","23","red-1","blue-141","risky","safe","2053","bandit-task","96","676821","0.0-95.0","20212","high"
"90","safe","claim","50","red-20","blue-7","risky","safe","1357","bandit-task","97","681773","0.0-96.0","20212","high"
"91","risky","claim","15","red-203","blue-78","risky","safe","1212","bandit-task","98","690486","0.0-97.0","20212","high"
"92","safe","claim","49","red-201","blue-9","risky","safe","796","bandit-task","99","695326","0.0-98.0","20212","high"
"93","safe","observe","50","red-133","blue-130","risky","safe","524","bandit-task","100","699094","0.0-99.0","20212","high"
"94","risky","observe","33","red-63","blue-85","risky","safe","780","bandit-task","101","703796","0.0-100.0","20212","high"
"95","safe","observe","51","red-39","blue-183","risky","safe","701","bandit-task","102","708749","0.0-101.0","20212","high"
"96","risky","observe","74","red-126","blue-143","risky","safe","1235","bandit-task","103","714253","0.0-102.0","20212","high"
"97","risky","claim","77","red-178","blue-38","risky","safe","964","bandit-task","104","719077","0.0-103.0","20212","high"
"98","safe","claim","50","red-139","blue-99","risky","safe","509","bandit-task","105","724447","0.0-104.0","20212","high"
"99","risky","claim","35","red-125","blue-103","risky","safe","754","bandit-task","106","729437","0.0-105.0","20212","high"
