"trial","choice","action","feedback","left_stimulus","right_stimulus","left_option","right_option","rt","trial_type","trial_index","time_elapsed","internal_node_id","participant","condition"
"0","safe","claim","48","red-167","blue-199","risky","safe","5942","bandit-task","7","432097","0.0-6.0","20824","low"
"1","risky","observe","29","red-167","blue-199","risky","safe","4057","bandit-task","8","441302","0.0-7.0","20824","low"
"2","risky","claim","69","red-167","blue-199","risky","safe","6790","bandit-task","9","452244","0.0-8.0","20824","low"
"3","risky","observe","35","red-167","blue-199","risky","safe","2582","bandit-task","10","460401","0.0-9.0","20824","low"
"4","safe","claim","49","red-167","blue-199","risky","safe","1150","bandit-task","11","466324","0.0-10.0","20824","low"
"5","safe","claim","49","red-167","blue-199","risky","safe","1200","bandit-task","12","472543","0.0-11.0","20824","low"
"6","risky","observe","62","red-167","blue-199","risky","safe","953","bandit-task","13","477508","0.0-12.0","20824","low"
"7","safe","claim","49","red-167","blue-199","risky","safe","9036","bandit-task","14","490923","0.0-13.0","20824","low"
"8","risky","claim","68","red-167","blue-199","risky","safe","1601","bandit-task","15","496519","0.0-14.0","20824","low"
"9","safe","observe","50","red-167","blue-199","risky","safe","456","bandit-task","16","500848","0.0-15.0","20824","low"
"10","safe","claim","49","red-167","blue-199","risky","safe","636","bandit-task","17","505576","0.0-16.0","20824","low"
"11","safe","claim","50","red-167","blue-199","risky","safe","448","bandit-task","18","510167","0.0-17.0","20824","low"
"12","risky","observe","70","red-167","blue-199","risky","safe","470","bandit-task","19","516346","0.0-18.0","20824","low"
"13","risky","claim","73","red-167","blue-199","risky","safe","10388","bandit-task","20","530950","0.0-19.0","20824","low"
"14","risky","observe","62","red-167","blue-199","risky","safe","2713","bandit-task","21","537168","0.0-20.0","20824","low"
"15","safe","claim","50","red-167","blue-199","risky","safe","881","bandit-task","22","541930","0.0-21.0","20824","low"
"16","risky","claim","24","red-167","blue-199","risky","safe","677","bandit-task","23","547117","0.0-22.0","20824","low"
"17","risky","claim","43","red-167","blue-199","risky","safe","1108","bandit-task","24","553654","0.0-23.0","20824","low"
"18","safe","observe","51","red-167","blue-199","risky","safe","2148","bandit-task","25","559577","0.0-24.0","20824","low"
"19","safe","claim","49","red-167","blue-199","risky","safe","1567","bandit-task","26","574162","0.0-25.0","20824","low"
"20","risky","claim","73","red-167","blue-199","risky","safe","1118","bandit-task","27","580511","0.0-26.0","20824","low"
"21","risky","claim","61","red-167","blue-199","risky","safe","430","bandit-task","28","584807","0.0-27.0","20824","low"
"22","risky","observe","29","red-167","blue-199","risky","safe","896","bandit-task","29","589199","0.0-28.0","20824","low"
"23","safe","claim","51","red-167","blue-199","risky","safe","546","bandit-task","30","593871","0.0-29.0","20824","low"
"24","risky","claim","29","red-167","blue-199","risky","safe","2190","bandit-task","31","600424","0.0-30.0","20824","low"
"25","safe","observe","50","red-167","blue-199","risky","safe","464","bandit-task","32","604295","0.0-31.0","20824","low"
"26","risky","claim","29","red-167","blue-199","risky","safe","494","bandit-task","33","608925","0.0-32.0","20824","low"
"27","risky","claim","61","red-167","blue-199","risky","safe","2435","bandit-task","34","615217","0.0-33.0","20824","low"
"28","risky","observe","38","red-167","blue-199","risky","safe","1315","bandit-task","35","620231","0.0-34.0","20824","low"
"29","risky","observe","54","red-167","blue-199","risky","safe","3679","bandit-task","36","627668","0.0-35.0","20824","low"
"30","safe","claim","50","red-167","blue-199","risky","safe","407","bandit-task","37","632447","0.0-36.0","20824","low"
"31","safe","claim","50","red-167","blue-199","risky","safe","552","bandit-task","38","636840","0.0-37.0","20824","low"
"32","safe","claim","50","red-167","blue-199","risky","safe","953","bandit-task","39","641363","0.0-38.0","20824","low"
"33","safe","observe","49","red-167","blue-199","risky","safe","1149","bandit-task","40","645888","0.0-39.0","20824","low"
"34","risky","claim","73","red-167","blue-199","risky","safe","381","bandit-task","41","651263","0.0-40.0","20824","low"
"35","risky","claim","69","red-167","blue-199","risky","safe","406","bandit-task","42","655844","0.0-41.0","20824","low"
"36","risky","observe","36","red-167","blue-199","risky","safe","438","bandit-task","43","659632","0.0-42.0","20824","low"
"37","safe","claim","49","red-167","blue-199","risky","safe","464","bandit-task","44","673724","0.0-43.0","20824","low"
"38","safe","claim","51","red-167","blue-199","risky","safe","619","bandit-task","45","679468","0.0-44.0","20824","low"
"39","risky","claim","74","red-167","blue-199","risky","safe","405","bandit-task","46","683707","0.0-45.0","20824","low"
"40","risky","claim","79","red-167","blue-199","risky","safe","356","bandit-task","47","687724","0.0-46.0","20824","low"
"41","safe","claim","49","red-167","blue-199","risky","safe","405","bandit-task","48","691675","0.0-47.0","20824","low"
"42","risky","claim","77","red-167","blue-199","risky","safe","358","bandit-task","49","695814","0.0-48.0","20824","low"
"43","risky","claim","34","red-167","blue-199","risky","safe","374","bandit-task","50","700093","0.0-49.0","20824","low"
"44","risky","observe","41","red-167","blue-199","risky","safe","1478","bandit-task","51","705084","0.0-50.0","20824","low"
"45","safe","claim","50","red-167","blue-199","risky","safe","356","bandit-task","52","710017","0.0-51.0","20824","low"
"46","risky","claim","70","red-167","blue-199","risky","safe","382","bandit-task","53","714215","0.0-52.0","20824","low"
"47","risky","claim","49","red-167","blue-199","risky","safe","528","bandit-task","54","718829","0.0-53.0","20824","low"
"48","safe","claim","49","red-167","blue-199","risky","safe","381","bandit-task","55","722739","0.0-54.0","20824","low"
"49","safe","observe","52","red-167","blue-199","risky","safe","423","bandit-task","56","727689","0.0-55.0","20824","low"
"50","safe","claim","51","red-167","blue-199","risky","safe","407","bandit-task","57","733163","0.0-56.0","20824","low"
"51","safe","claim","48","red-167","blue-199","risky","safe","544","bandit-task","58","737737","0.0-57.0","20824","low"
"52","risky","claim","77","red-167","blue-199","risky","safe","577","bandit-task","59","742375","0.0-58.0","20824","low"
"53","safe","claim","51","red-167","blue-199","risky","safe","668","bandit-task","60","746989","0.0-59.0","20824","low"
"54","safe","claim","49","red-167","blue-199","risky","safe","439","bandit-task","61","751316","0.0-60.0","20824","low"
"55","safe","observe","51","red-167","blue-199","risky","safe","465","bandit-task","62","757079","0.0-61.0","20824","low"
"56","risky","claim","64","red-167","blue-199","risky","safe","424","bandit-task","63","765227","0.0-62.0","20824","low"
"57","risky","observe","26","red-167","blue-199","risky","safe","5152","bandit-task","64","775109","0.0-63.0","20824","low"
"58","risky","claim","22","red-167","blue-199","risky","safe","1526","bandit-task","65","780665","0.0-64.0","20824","low"
"59","risky","observe","80","red-167","blue-199","risky","safe","968","bandit-task","66","786543","0.0-65.0","20824","low"
"60","risky","observe","53","red-167","blue-199","risky","safe","2869","bandit-task","67","793547","0.0-66.0","20824","low"
"61","safe","observe","48","red-167","blue-199","risky","safe","439","bandit-task","68","798531","0.0-67.0","20824","low"
"62","risky","claim","34","red-167","blue-199","risky","safe","382","bandit-task","69","802728","0.0-68.0","20824","low"
"63","safe","claim","49","red-167","blue-199","risky","safe","831","bandit-task","70","807669","0.0-69.0","20824","low"
"64","safe","claim","50","red-167","blue-199","risky","safe","569","bandit-task","71","812227","0.0-70.0","20824","low"
"65","risky","claim","68","red-167","blue-199","risky","safe","357","bandit-task","72","816540","0.0-71.0","20824","low"
"66","risky","claim","21","red-167","blue-199","risky","safe","340","bandit-task","73","820729","0.0-72.0","20824","low"
"67","risky","observe","20","red-167","blue-199","risky","safe","406","bandit-task","74","824681","0.0-73.0","20824","low"
"68","risky","claim","49","red-167","blue-199","risky","safe","1774","bandit-task","75","831168","0.0-74.0","20824","low"
"69","safe","observe","50","red-167","blue-199","risky","safe","1731","bandit-task","76","837985","0.0-75.0","20824","low"
"70","safe","claim","50","red-167","blue-199","risky","safe","348","bandit-task","77","841855","0.0-76.0","20824","low"
"71","risky","claim","59","red-167","blue-199","risky","safe","381","bandit-task","78","846046","0.0-77.0","20824","low"
"72","risky","observe","57","red-167","blue-199","risky","safe","398","bandit-task","79","851945","0.0-78.0","20824","low"
"73","risky","observe","87","red-167","blue-199","risky","safe","1870","bandit-task","80","859365","0.0-79.0","20824","low"
"74","risky","claim","65","red-167","blue-199","risky","safe","1699","bandit-task","81","865403","0.0-80.0","20824","low"
"75","safe","observe","52","red-167","blue-199","risky","safe","561","bandit-task","82","869805","0.0-81.0","20824","low"
"76","safe","claim","51","red-167","blue-199","risky","safe","374","bandit-task","83","874304","0.0-82.0","20824","low"
"77","safe","claim","49","red-167","blue-199","risky","safe","1224","bandit-task","84","879264","0.0-83.0","20824","low"
"78","risky","claim","75","red-167","blue-199","risky","safe","387","bandit-task","85","883615","0.0-84.0","20824","low"
"79","risky","claim","41","red-167","blue-199","risky","safe","290","bandit-task","86","887919","0.0-85.0","20824","low"
"80","risky","observe","19","red-167","blue-199","risky","safe","888","bandit-task","87","892100","0.0-86.0","20824","low"
"81","safe","claim","50","red-167","blue-199","risky","safe","487","bandit-task","88","896720","0.0-87.0","20824","low"
"82","safe","claim","50","red-167","blue-199","risky","safe","528","bandit-task","89","901212","0.0-88.0","20824","low"
"83","safe","observe","50","red-167","blue-199","risky","safe","398","bandit-task","90","905286","0.0-89.0","20824","low"
"84","safe","observe","49","red-167","blue-199","risky","safe","546","bandit-task","91","910415","0.0-90.0","20824","low"
"85","safe","claim","50","red-167","blue-199","risky","safe","528","bandit-task","92","914907","0.0-91.0","20824","low"
"86","risky","claim","13","red-167","blue-199","risky","safe","561","bandit-task","93","919406","0.0-92.0","20824","low"
"87","risky","observe","36","red-167","blue-199","risky","safe","406","bandit-task","94","924274","0.0-93.0","20824","low"
"88","risky","claim","32","red-167","blue-199","risky","safe","357","bandit-task","95","928194","0.0-94.0","20824","low"
"89","safe","claim","51","red-167","blue-199","risky","safe","3506","bandit-task","96","936455","0.0-95.0","20824","low"
"90","risky","claim","28","red-167","blue-199","risky","safe","382","bandit-task","97","940561","0.0-96.0","20824","low"
"91","risky","observe","33","red-167","blue-199","risky","safe","766","bandit-task","98","945249","0.0-97.0","20824","low"
"92","risky","claim","31","red-167","blue-199","risky","safe","384","bandit-task","99","949635","0.0-98.0","20824","low"
"93","safe","claim","50","red-167","blue-199","risky","safe","365","bandit-task","100","954962","0.0-99.0","20824","low"
"94","safe","observe","51","red-167","blue-199","risky","safe","313","bandit-task","101","958799","0.0-100.0","20824","low"
"95","risky","claim","64","red-167","blue-199","risky","safe","447","bandit-task","102","962578","0.0-101.0","20824","low"
"96","risky","claim","59","red-167","blue-199","risky","safe","365","bandit-task","103","966472","0.0-102.0","20824","low"
"97","safe","claim","50","red-167","blue-199","risky","safe","512","bandit-task","104","970735","0.0-103.0","20824","low"
"98","risky","claim","32","red-167","blue-199","risky","safe","340","bandit-task","105","974884","0.0-104.0","20824","low"
"99","safe","claim","49","red-167","blue-199","risky","safe","357","bandit-task","106","979056","0.0-105.0","20824","low"
