"trial","choice","action","feedback","left_stimulus","right_stimulus","left_option","right_option","rt","trial_type","trial_index","time_elapsed","internal_node_id","participant","condition"
"0","risky","observe","75","blue-162","red-125","safe","risky","6694","bandit-task","10","198746","0.0-6.0","21162","low"
"1","safe","claim","48","blue-162","red-125","safe","risky","2568","bandit-task","11","205669","0.0-7.0","21162","low"
"2","risky","claim","65","blue-162","red-125","safe","risky","820","bandit-task","12","209994","0.0-8.0","21162","low"
"3","safe","claim","49","blue-162","red-125","safe","risky","711","bandit-task","13","214421","0.0-9.0","21162","low"
"4","risky","observe","69","blue-162","red-125","safe","risky","571","bandit-task","14","218954","0.0-10.0","21162","low"
"5","risky","claim","31","blue-162","red-125","safe","risky","713","bandit-task","15","224258","0.0-11.0","21162","low"
"6","risky","claim","62","blue-162","red-125","safe","risky","587","bandit-task","16","228817","0.0-12.0","21162","low"
"7","risky","claim","69","blue-162","red-125","safe","risky","618","bandit-task","17","233268","0.0-13.0","21162","low"
"8","safe","observe","49","blue-162","red-125","safe","risky","672","bandit-task","18","237517","0.0-14.0","21162","low"
"9","safe","claim","51","blue-162","red-125","safe","risky","564","bandit-task","19","242916","0.0-15.0","21162","low"
"10","safe","claim","49","blue-162","red-125","safe","risky","526","bandit-task","20","247662","0.0-16.0","21162","low"
"11","safe","claim","51","blue-162","red-125","safe","risky","473","bandit-task","21","252213","0.0-17.0","21162","low"
"12","safe","claim","51","blue-162","red-125","safe","risky","495","bandit-task","22","256517","0.0-18.0","21162","low"
"13","risky","claim","25","blue-162","red-125","safe","risky","683","bandit-task","23","260541","0.0-19.0","21162","low"
"14","safe","observe","50","blue-162","red-125","safe","risky","418","bandit-task","24","265121","0.0-20.0","21162","low"
"15","safe","claim","51","blue-162","red-125","safe","risky","438","bandit-task","25","269026","0.0-21.0","21162","low"
"16","risky","claim","78","blue-162","red-125","safe","risky","467","bandit-task","26","272595","0.0-22.0","21162","low"
"17","safe","claim","49","blue-162","red-125","safe","risky","409","bandit-task","27","276296","0.0-23.0","21162","low"
"18","safe","claim","50","blue-162","red-125","safe","risky","407","bandit-task","28","280284","0.0-24.0","21162","low"
"19","safe","claim","50","blue-162","red-125","safe","risky","399","bandit-task","29","283963","0.0-25.0","21162","low"
"20","safe","claim","50","blue-162","red-125","safe","risky","475","bandit-task","30","287922","0.0-26.0","21162","low"
"21","safe","claim","51","blue-162","red-125","safe","risky","410","bandit-task","31","291736","0.0-27.0","21162","low"
"22","safe","claim","49","blue-162","red-125","safe","risky","461","bandit-task","32","295866","0.0-28.0","21162","low"
"23","safe","claim","50","blue-162","red-125","safe","risky","370","bandit-task","33","300379","0.0-29.0","21162","low"
"24","safe","claim","49","blue-162","red-125","safe","risky","421","bandit-task","34","303594","0.0-30.0","21162","low"
"25","safe","claim","48","blue-162","red-125","safe","risky","315","bandit-task","35","306760","0.0-31.0","21162","low"
"26","safe","claim","50","blue-162","red-125","safe","risky","307","bandit-task","36","314414","0.0-32.0","21162","low"
"27","safe","claim","49","blue-162","red-125","safe","risky","466","bandit-task","37","319124","0.0-33.0","21162","low"
"28","safe","claim","50","blue-162","red-125","safe","risky","464","bandit-task","38","322449","0.0-34.0","21162","low"
"29","safe","claim","51","blue-162","red-125","safe","risky","331","bandit-task","39","325828","0.0-35.0","21162","low"
"30","safe","claim","51","blue-162","red-125","safe","risky","281","bandit-task","40","329163","0.0-36.0","21162","low"
"31","safe","claim","50","blue-162","red-125","safe","risky","401","bandit-task","41","333200","0.0-37.0","21162","low"
"32","safe","claim","50","blue-162","red-125","safe","risky","2255","bandit-task","42","341757","0.0-38.0","21162","low"
"33","safe","claim","50","blue-162","red-125","safe","risky","661","bandit-task","43","346670","0.0-39.0","21162","low"
"34","safe","claim","51","blue-162","red-125","safe","risky","373","bandit-task","44","350164","0.0-40.0","21162","low"
"35","safe","claim","51","blue-162","red-125","safe","risky","422","bandit-task","45","353970","0.0-41.0","21162","low"
"36","safe","claim","51","blue-162","red-125","safe","risky","382","bandit-task","46","358881","0.0-42.0","21162","low"
"37","safe","claim","50","blue-162","red-125","safe","risky","419","bandit-task","47","362318","0.0-43.0","21162","low"
"38","risky","observe","80","blue-162","red-125","safe","risky","378","bandit-task","48","365839","0.0-44.0","21162","low"
"39","safe","observe","49","blue-162","red-125","safe","risky","360","bandit-task","49","369105","0.0-45.0","21162","low"
"40","risky","claim","25","blue-162","red-125","safe","risky","1693","bandit-task","50","373995","0.0-46.0","21162","low"
"41","risky","claim","87","blue-162","red-125","safe","risky","418","bandit-task","51","377322","0.0-47.0","21162","low"
"42","risky","claim","34","blue-162","red-125","safe","risky","440","bandit-task","52","381538","0.0-48.0","21162","low"
"43","risky","claim","19","blue-162","red-125","safe","risky","388","bandit-task","53","385017","0.0-49.0","21162","low"
"44","risky","claim","26","blue-162","red-125","safe","risky","377","bandit-task","54","388597","0.0-50.0","21162","low"
"45","risky","claim","86","blue-162","red-125","safe","risky","406","bandit-task","55","391914","0.0-51.0","21162","low"
"46","risky","claim","43","blue-162","red-125","safe","risky","392","bandit-task","56","395217","0.0-52.0","21162","low"
"47","risky","claim","72","blue-162","red-125","safe","risky","437","bandit-task","57","398620","0.0-53.0","21162","low"
"48","risky","claim","31","blue-162","red-125","safe","risky","379","bandit-task","58","402171","0.0-54.0","21162","low"
"49","risky","claim","36","blue-162","red-125","safe","risky","384","bandit-task","59","405695","0.0-55.0","21162","low"
"50","risky","observe","31","blue-162","red-125","safe","risky","416","bandit-task","60","409221","0.0-56.0","21162","low"
"51","safe","observe","49","blue-162","red-125","safe","risky","1471","bandit-task","61","413703","0.0-57.0","21162","low"
"52","risky","observe","59","blue-162","red-125","safe","risky","391","bandit-task","62","417333","0.0-58.0","21162","low"
"53","risky","observe","66","blue-162","red-125","safe","risky","359","bandit-task","63","420916","0.0-59.0","21162","low"
"54","risky","claim","50","blue-162","red-125","safe","risky","339","bandit-task","64","424264","0.0-60.0","21162","low"
"55","risky","claim","69","blue-162","red-125","safe","risky","363","bandit-task","65","427983","0.0-61.0","21162","low"
"56","safe","observe","50","blue-162","red-125","safe","risky","340","bandit-task","66","431519","0.0-62.0","21162","low"
"57","safe","claim","50","blue-162","red-125","safe","risky","363","bandit-task","67","435296","0.0-63.0","21162","low"
"58","safe","claim","50","blue-162","red-125","safe","risky","390","bandit-task","68","438827","0.0-64.0","21162","low"
"59","safe","claim","50","blue-162","red-125","safe","risky","335","bandit-task","69","442470","0.0-65.0","21162","low"
"60","safe","claim","49","blue-162","red-125","safe","risky","379","bandit-task","70","446574","0.0-66.0","21162","low"
"61","safe","claim","51","blue-162","red-125","safe","risky","356","bandit-task","71","449893","0.0-67.0","21162","low"
"62","safe","claim","49","blue-162","red-125","safe","risky","345","bandit-task","72","453465","0.0-68.0","21162","low"
"63","safe","claim","53","blue-162","red-125","safe","risky","340","bandit-task","73","456766","0.0-69.0","21162","low"
"64","safe","claim","49","blue-162","red-125","safe","risky","305","bandit-task","74","460439","0.0-70.0","21162","low"
"65","safe","claim","48","blue-162","red-125","safe","risky","420","bandit-task","75","463825","0.0-71.0","21162","low"
"66","risky","claim","56","blue-162","red-125","safe","risky","399","bandit-task","76","467221","0.0-72.0","21162","low"
"67","risky","claim","74","blue-162","red-125","safe","risky","355","bandit-task","77","470540","0.0-73.0","21162","low"
"68","risky","claim","75","blue-162","red-125","safe","risky","345","bandit-task","78","473930","0.0-74.0","21162","low"
"69","risky","claim","84","blue-162","red-125","safe","risky","372","bandit-task","79","477298","0.0-75.0","21162","low"
"70","risky","claim","69","blue-162","red-125","safe","risky","402","bandit-task","80","480747","0.0-76.0","21162","low"
"71","risky","claim","24","blue-162","red-125","safe","risky","376","bandit-task","81","484368","0.0-77.0","21162","low"
"72","risky","claim","25","blue-162","red-125","safe","risky","426","bandit-task","82","488128","0.0-78.0","21162","low"
"73","risky","claim","44","blue-162","red-125","safe","risky","409","bandit-task","83","492300","0.0-79.0","21162","low"
"74","risky","claim","72","blue-162","red-125","safe","risky","366","bandit-task","84","496048","0.0-80.0","21162","low"
"75","risky","claim","49","blue-162","red-125","safe","risky","338","bandit-task","85","499434","0.0-81.0","21162","low"
"76","risky","claim","33","blue-162","red-125","safe","risky","427","bandit-task","86","526089","0.0-82.0","21162","low"
"77","risky","observe","76","blue-162","red-125","safe","risky","1226","bandit-task","87","530809","0.0-83.0","21162","low"
"78","risky","claim","22","blue-162","red-125","safe","risky","425","bandit-task","88","534336","0.0-84.0","21162","low"
"79","risky","claim","65","blue-162","red-125","safe","risky","429","bandit-task","89","538015","0.0-85.0","21162","low"
"80","risky","claim","66","blue-162","red-125","safe","risky","392","bandit-task","90","541661","0.0-86.0","21162","low"
"81","risky","claim","71","blue-162","red-125","safe","risky","431","bandit-task","91","545516","0.0-87.0","21162","low"
"82","risky","claim","73","blue-162","red-125","safe","risky","399","bandit-task","92","548723","0.0-88.0","21162","low"
"83","risky","claim","25","blue-162","red-125","safe","risky","382","bandit-task","93","551906","0.0-89.0","21162","low"
"84","risky","claim","33","blue-162","red-125","safe","risky","334","bandit-task","94","555035","0.0-90.0","21162","low"
"85","safe","claim","51","blue-162","red-125","safe","risky","398","bandit-task","95","558540","0.0-91.0","21162","low"
"86","safe","observe","49","blue-162","red-125","safe","risky","593","bandit-task","96","562417","0.0-92.0","21162","low"
"87","safe","claim","50","blue-162","red-125","safe","risky","532","bandit-task","97","567174","0.0-93.0","21162","low"
"88","safe","claim","50","blue-162","red-125","safe","risky","339","bandit-task","98","597412","0.0-94.0","21162","low"
"89","safe","claim","50","blue-162","red-125","safe","risky","655","bandit-task","99","601517","0.0-95.0","21162","low"
"90","safe","claim","49","blue-162","red-125","safe","risky","401","bandit-task","100","605035","0.0-96.0","21162","low"
"91","risky","claim","28","blue-162","red-125","safe","risky","301","bandit-task","101","608659","0.0-97.0","21162","low"
"92","risky","claim","16","blue-162","red-125","safe","risky","390","bandit-task","102","612003","0.0-98.0","21162","low"
"93","risky","claim","62","blue-162","red-125","safe","risky","370","bandit-task","103","615435","0.0-99.0","21162","low"
"94","risky","observe","80","blue-162","red-125","safe","risky","381","bandit-task","104","619100","0.0-100.0","21162","low"
"95","risky","claim","23","blue-162","red-125","safe","risky","426","bandit-task","105","622705","0.0-101.0","21162","low"
"96","risky","claim","82","blue-162","red-125","safe","risky","398","bandit-task","106","626031","0.0-102.0","21162","low"
"97","risky","claim","76","blue-162","red-125","safe","risky","375","bandit-task","107","629408","0.0-103.0","21162","low"
"98","safe","observe","50","blue-162","red-125","safe","risky","359","bandit-task","108","633005","0.0-104.0","21162","low"
"99","risky","claim","40","blue-162","red-125","safe","risky","363","bandit-task","109","636812","0.0-105.0","21162","low"
