"trial","choice","action","feedback","left_stimulus","right_stimulus","left_option","right_option","rt","trial_type","trial_index","time_elapsed","internal_node_id","participant","condition"
"0","safe","claim","51","red-199","blue-135","risky","safe","7211","bandit-task","7","460960","0.0-6.0","20352","low"
"1","risky","observe","29","red-199","blue-135","risky","safe","3057","bandit-task","8","468441","0.0-7.0","20352","low"
"2","safe","claim","51","red-199","blue-135","risky","safe","1215","bandit-task","9","475466","0.0-8.0","20352","low"
"3","safe","observe","50","red-199","blue-135","risky","safe","2537","bandit-task","10","482578","0.0-9.0","20352","low"
"4","risky","claim","24","red-199","blue-135","risky","safe","1294","bandit-task","11","487881","0.0-10.0","20352","low"
"5","risky","observe","35","red-199","blue-135","risky","safe","1567","bandit-task","12","492599","0.0-11.0","20352","low"
"6","risky","claim","84","red-199","blue-135","risky","safe","1136","bandit-task","13","497373","0.0-12.0","20352","low"
"7","safe","observe","51","red-199","blue-135","risky","safe","816","bandit-task","14","502337","0.0-13.0","20352","low"
"8","risky","observe","63","red-199","blue-135","risky","safe","1237","bandit-task","15","507712","0.0-14.0","20352","low"
"9","safe","observe","49","red-199","blue-135","risky","safe","641","bandit-task","16","511853","0.0-15.0","20352","low"
"10","safe","claim","49","red-199","blue-135","risky","safe","1203","bandit-task","17","517192","0.0-16.0","20352","low"
"11","risky","claim","35","red-199","blue-135","risky","safe","416","bandit-task","18","521370","0.0-17.0","20352","low"
"12","safe","claim","51","red-199","blue-135","risky","safe","569","bandit-task","19","529378","0.0-18.0","20352","low"
"13","risky","observe","66","red-199","blue-135","risky","safe","10829","bandit-task","20","544327","0.0-19.0","20352","low"
"14","safe","claim","50","red-199","blue-135","risky","safe","483","bandit-task","21","548807","0.0-20.0","20352","low"
"15","safe","observe","49","red-199","blue-135","risky","safe","336","bandit-task","22","552610","0.0-21.0","20352","low"
"16","safe","claim","51","red-199","blue-135","risky","safe","638","bandit-task","23","556868","0.0-22.0","20352","low"
"17","risky","observe","16","red-199","blue-135","risky","safe","1037","bandit-task","24","563333","0.0-23.0","20352","low"
"18","safe","observe","50","red-199","blue-135","risky","safe","426","bandit-task","25","569451","0.0-24.0","20352","low"
"19","risky","claim","67","red-199","blue-135","risky","safe","591","bandit-task","26","574091","0.0-25.0","20352","low"
"20","risky","claim","34","red-199","blue-135","risky","safe","365","bandit-task","27","577399","0.0-26.0","20352","low"
"21","safe","claim","49","red-199","blue-135","risky","safe","519","bandit-task","28","581514","0.0-27.0","20352","low"
"22","risky","claim","16","red-199","blue-135","risky","safe","452","bandit-task","29","631760","0.0-28.0","20352","low"
"23","safe","observe","50","red-199","blue-135","risky","safe","562","bandit-task","30","636215","0.0-29.0","20352","low"
"24","risky","observe","70","red-199","blue-135","risky","safe","379","bandit-task","31","640640","0.0-30.0","20352","low"
"25","risky","claim","36","red-199","blue-135","risky","safe","350","bandit-task","32","645095","0.0-31.0","20352","low"
"26","risky","claim","32","red-199","blue-135","risky","safe","943","bandit-task","33","649373","0.0-32.0","20352","low"
"27","safe","claim","50","red-199","blue-135","risky","safe","396","bandit-task","34","653064","0.0-33.0","20352","low"
"28","risky","observe","62","red-199","blue-135","risky","safe","504","bandit-task","35","657897","0.0-34.0","20352","low"
"29","risky","claim","52","red-199","blue-135","risky","safe","415","bandit-task","36","662314","0.0-35.0","20352","low"
"30","safe","claim","50","red-199","blue-135","risky","safe","417","bandit-task","37","667070","0.0-36.0","20352","low"
"31","risky","claim","31","red-199","blue-135","risky","safe","366","bandit-task","38","673499","0.0-37.0","20352","low"
"32","risky","observe","72","red-199","blue-135","risky","safe","343","bandit-task","39","677975","0.0-38.0","20352","low"
"33","safe","claim","50","red-199","blue-135","risky","safe","2330","bandit-task","40","685912","0.0-39.0","20352","low"
"34","risky","claim","23","red-199","blue-135","risky","safe","620","bandit-task","41","690144","0.0-40.0","20352","low"
"35","safe","claim","50","red-199","blue-135","risky","safe","296","bandit-task","42","694617","0.0-41.0","20352","low"
"36","safe","claim","50","red-199","blue-135","risky","safe","311","bandit-task","43","698956","0.0-42.0","20352","low"
"37","safe","claim","50","red-199","blue-135","risky","safe","67986","bandit-task","44","770970","0.0-43.0","20352","low"
"38","risky","claim","69","red-199","blue-135","risky","safe","325","bandit-task","45","776082","0.0-44.0","20352","low"
"39","risky","claim","42","red-199","blue-135","risky","safe","331","bandit-task","46","785053","0.0-45.0","20352","low"
"40","risky","claim","31","red-199","blue-135","risky","safe","398","bandit-task","47","823610","0.0-46.0","20352","low"
"41","risky","claim","36","red-199","blue-135","risky","safe","373","bandit-task","48","827140","0.0-47.0","20352","low"
"42","safe","claim","49","red-199","blue-135","risky","safe","423","bandit-task","49","833391","0.0-48.0","20352","low"
"43","risky","observe","78","red-199","blue-135","risky","safe","361","bandit-task","50","838574","0.0-49.0","20352","low"
"44","risky","claim","68","red-199","blue-135","risky","safe","371","bandit-task","51","861484","0.0-50.0","20352","low"
"45","safe","claim","51","red-199","blue-135","risky","safe","976","bandit-task","52","899227","0.0-51.0","20352","low"
"46","safe","claim","50","red-199","blue-135","risky","safe","769","bandit-task","53","903810","0.0-52.0","20352","low"
"47","risky","claim","60","red-199","blue-135","risky","safe","907","bandit-task","54","910591","0.0-53.0","20352","low"
"48","risky","claim","29","red-199","blue-135","risky","safe","726","bandit-task","55","915277","0.0-54.0","20352","low"
"49","safe","claim","50","red-199","blue-135","risky","safe","1164","bandit-task","56","920213","0.0-55.0","20352","low"
"50","safe","claim","51","red-199","blue-135","risky","safe","279","bandit-task","57","923511","0.0-56.0","20352","low"
"51","safe","claim","50","red-199","blue-135","risky","safe","346","bandit-task","58","927345","0.0-57.0","20352","low"
"52","risky","claim","69","red-199","blue-135","risky","safe","274","bandit-task","59","935259","0.0-58.0","20352","low"
"53","safe","claim","50","red-199","blue-135","risky","safe","433","bandit-task","60","961099","0.0-59.0","20352","low"
"54","risky","claim","73","red-199","blue-135","risky","safe","388","bandit-task","61","966184","0.0-60.0","20352","low"
"55","safe","claim","50","red-199","blue-135","risky","safe","765","bandit-task","62","970592","0.0-61.0","20352","low"
"56","safe","claim","50","red-199","blue-135","risky","safe","946","bandit-task","63","974590","0.0-62.0","20352","low"
"57","risky","claim","60","red-199","blue-135","risky","safe","601","bandit-task","64","978260","0.0-63.0","20352","low"
"58","risky","claim","16","red-199","blue-135","risky","safe","379","bandit-task","65","982904","0.0-64.0","20352","low"
"59","risky","claim","59","red-199","blue-135","risky","safe","392","bandit-task","66","986794","0.0-65.0","20352","low"
"60","risky","claim","68","red-199","blue-135","risky","safe","342","bandit-task","67","990312","0.0-66.0","20352","low"
"61","risky","claim","67","red-199","blue-135","risky","safe","456","bandit-task","68","994753","0.0-67.0","20352","low"
"62","safe","claim","48","red-199","blue-135","risky","safe","290","bandit-task","69","998844","0.0-68.0","20352","low"
"63","risky","claim","42","red-199","blue-135","risky","safe","340","bandit-task","70","1002673","0.0-69.0","20352","low"
"64","safe","claim","52","red-199","blue-135","risky","safe","324","bandit-task","71","1006486","0.0-70.0","20352","low"
"65","safe","claim","48","red-199","blue-135","risky","safe","631","bandit-task","72","1010599","0.0-71.0","20352","low"
"66","risky","claim","60","red-199","blue-135","risky","safe","402","bandit-task","73","1015693","0.0-72.0","20352","low"
"67","safe","claim","51","red-199","blue-135","risky","safe","408","bandit-task","74","1027084","0.0-73.0","20352","low"
"68","risky","claim","63","red-199","blue-135","risky","safe","382","bandit-task","75","1030831","0.0-74.0","20352","low"
"69","risky","claim","32","red-199","blue-135","risky","safe","317","bandit-task","76","1034128","0.0-75.0","20352","low"
"70","risky","claim","74","red-199","blue-135","risky","safe","339","bandit-task","77","1037645","0.0-76.0","20352","low"
"71","safe","claim","49","red-199","blue-135","risky","safe","271","bandit-task","78","1041037","0.0-77.0","20352","low"
"72","safe","claim","50","red-199","blue-135","risky","safe","290","bandit-task","79","1044441","0.0-78.0","20352","low"
"73","risky","claim","60","red-199","blue-135","risky","safe","289","bandit-task","80","1055483","0.0-79.0","20352","low"
"74","risky","claim","78","red-199","blue-135","risky","safe","746","bandit-task","81","1059918","0.0-80.0","20352","low"
"75","safe","claim","52","red-199","blue-135","risky","safe","651","bandit-task","82","1064287","0.0-81.0","20352","low"
"76","risky","claim","12","red-199","blue-135","risky","safe","583","bandit-task","83","1068151","0.0-82.0","20352","low"
"77","risky","claim","61","red-199","blue-135","risky","safe","495","bandit-task","84","1072043","0.0-83.0","20352","low"
"78","risky","claim","55","red-199","blue-135","risky","safe","432","bandit-task","85","1076983","0.0-84.0","20352","low"
"79","safe","claim","51","red-199","blue-135","risky","safe","312","bandit-task","86","1121554","0.0-85.0","20352","low"
"80","risky","claim","67","red-199","blue-135","risky","safe","646","bandit-task","87","1138996","0.0-86.0","20352","low"
"81","safe","claim","52","red-199","blue-135","risky","safe","594","bandit-task","88","1143880","0.0-87.0","20352","low"
"82","risky","claim","35","red-199","blue-135","risky","safe","423","bandit-task","89","1147941","0.0-88.0","20352","low"
"83","safe","claim","49","red-199","blue-135","risky","safe","1012","bandit-task","90","1152360","0.0-89.0","20352","low"
"84","safe","claim","49","red-199","blue-135","risky","safe","403","bandit-task","91","1156131","0.0-90.0","20352","low"
"85","risky","claim","27","red-199","blue-135","risky","safe","519","bandit-task","92","1159532","0.0-91.0","20352","low"
"86","risky","claim","62","red-199","blue-135","risky","safe","602","bandit-task","93","1163359","0.0-92.0","20352","low"
"87","risky","claim","31","red-199","blue-135","risky","safe","482","bandit-task","94","1167500","0.0-93.0","20352","low"
"88","safe","claim","50","red-199","blue-135","risky","safe","851","bandit-task","95","1171802","0.0-94.0","20352","low"
"89","safe","claim","50","red-199","blue-135","risky","safe","303","bandit-task","96","1228449","0.0-95.0","20352","low"
"90","risky","claim","78","red-199","blue-135","risky","safe","660","bandit-task","97","1232466","0.0-96.0","20352","low"
"91","safe","claim","51","red-199","blue-135","risky","safe","1074","bandit-task","98","1236900","0.0-97.0","20352","low"
"92","risky","claim","32","red-199","blue-135","risky","safe","378","bandit-task","99","1240196","0.0-98.0","20352","low"
"93","risky","claim","73","red-199","blue-135","risky","safe","268","bandit-task","100","1243480","0.0-99.0","20352","low"
"94","risky","claim","71","red-199","blue-135","risky","safe","395","bandit-task","101","1247422","0.0-100.0","20352","low"
"95","safe","claim","50","red-199","blue-135","risky","safe","288","bandit-task","102","1251242","0.0-101.0","20352","low"
"96","safe","claim","51","red-199","blue-135","risky","safe","382","bandit-task","103","1254884","0.0-102.0","20352","low"
"97","risky","claim","29","red-199","blue-135","risky","safe","403","bandit-task","104","1258323","0.0-103.0","20352","low"
"98","risky","claim","27","red-199","blue-135","risky","safe","511","bandit-task","105","1261828","0.0-104.0","20352","low"
"99","safe","claim","49","red-199","blue-135","risky","safe","504","bandit-task","106","1265963","0.0-105.0","20352","low"
