"trial","choice","action","feedback","left_stimulus","right_stimulus","left_option","right_option","rt","trial_type","trial_index","time_elapsed","internal_node_id","participant","condition"
"0","risky","claim","72","red-43","blue-36","safe","risky","5143","bandit-task","7","110251","0.0-6.0","20605","high"
"1","risky","observe","84","red-4","blue-66","safe","risky","2440","bandit-task","8","116647","0.0-7.0","20605","high"
"2","risky","observe","66","red-117","blue-62","safe","risky","1509","bandit-task","9","121555","0.0-8.0","20605","high"
"3","safe","observe","50","red-100","blue-127","safe","risky","658","bandit-task","10","125719","0.0-9.0","20605","high"
"4","risky","observe","72","red-124","blue-132","safe","risky","569","bandit-task","11","129899","0.0-10.0","20605","high"
"5","safe","observe","48","red-73","blue-72","safe","risky","458","bandit-task","12","133647","0.0-11.0","20605","high"
"6","risky","claim","16","red-176","blue-149","safe","risky","743","bandit-task","13","137987","0.0-12.0","20605","high"
"7","risky","claim","65","red-70","blue-120","safe","risky","466","bandit-task","14","141868","0.0-13.0","20605","high"
"8","risky","observe","20","red-172","blue-55","safe","risky","1098","bandit-task","15","146407","0.0-14.0","20605","high"
"9","safe","observe","50","red-188","blue-156","safe","risky","663","bandit-task","16","150574","0.0-15.0","20605","high"
"10","risky","observe","79","red-40","blue-20","safe","risky","674","bandit-task","17","154944","0.0-16.0","20605","high"
"11","safe","observe","49","red-19","blue-39","safe","risky","584","bandit-task","18","158522","0.0-17.0","20605","high"
"12","risky","observe","44","red-58","blue-131","safe","risky","1124","bandit-task","19","162772","0.0-18.0","20605","high"
"13","risky","observe","63","red-158","blue-7","safe","risky","1171","bandit-task","20","166885","0.0-19.0","20605","high"
"14","risky","observe","33","red-41","blue-164","safe","risky","1387","bandit-task","21","171315","0.0-20.0","20605","high"
"15","risky","claim","75","red-108","blue-16","safe","risky","616","bandit-task","22","175152","0.0-21.0","20605","high"
"16","safe","claim","49","red-8","blue-54","safe","risky","2122","bandit-task","23","180234","0.0-22.0","20605","high"
"17","safe","claim","50","red-69","blue-102","safe","risky","1123","bandit-task","24","184437","0.0-23.0","20605","high"
"18","risky","claim","20","red-27","blue-144","safe","risky","788","bandit-task","25","188614","0.0-24.0","20605","high"
"19","risky","claim","71","red-155","blue-125","safe","risky","892","bandit-task","26","192398","0.0-25.0","20605","high"
"20","risky","claim","30","red-178","blue-121","safe","risky","564","bandit-task","27","195963","0.0-26.0","20605","high"
"21","safe","claim","52","red-75","blue-57","safe","risky","924","bandit-task","28","199889","0.0-27.0","20605","high"
"22","safe","claim","48","red-169","blue-141","safe","risky","1188","bandit-task","29","204137","0.0-28.0","20605","high"
"23","safe","claim","49","red-48","blue-199","safe","risky","1459","bandit-task","30","208499","0.0-29.0","20605","high"
"24","safe","claim","50","red-106","blue-183","safe","risky","945","bandit-task","31","212426","0.0-30.0","20605","high"
"25","safe","claim","49","red-32","blue-5","safe","risky","1065","bandit-task","32","216699","0.0-31.0","20605","high"
"26","risky","claim","78","red-148","blue-68","safe","risky","720","bandit-task","33","220438","0.0-32.0","20605","high"
"27","safe","claim","51","red-31","blue-196","safe","risky","2223","bandit-task","34","225922","0.0-33.0","20605","high"
"28","risky","observe","59","red-71","blue-101","safe","risky","933","bandit-task","35","229871","0.0-34.0","20605","high"
"29","risky","observe","79","red-42","blue-56","safe","risky","779","bandit-task","36","233380","0.0-35.0","20605","high"
"30","risky","observe","59","red-38","blue-119","safe","risky","615","bandit-task","37","236841","0.0-36.0","20605","high"
"31","safe","claim","50","red-95","blue-151","safe","risky","1622","bandit-task","38","241646","0.0-37.0","20605","high"
"32","safe","claim","51","red-2","blue-177","safe","risky","1196","bandit-task","39","245752","0.0-38.0","20605","high"
"33","risky","claim","40","red-12","blue-22","safe","risky","428","bandit-task","40","249099","0.0-39.0","20605","high"
"34","risky","claim","35","red-113","blue-93","safe","risky","720","bandit-task","41","252771","0.0-40.0","20605","high"
"35","safe","claim","49","red-78","blue-138","safe","risky","838","bandit-task","42","256789","0.0-41.0","20605","high"
"36","risky","claim","25","red-25","blue-18","safe","risky","636","bandit-task","43","260498","0.0-42.0","20605","high"
"37","risky","claim","78","red-89","blue-13","safe","risky","670","bandit-task","44","263847","0.0-43.0","20605","high"
"38","risky","claim","69","red-187","blue-47","safe","risky","1526","bandit-task","45","268174","0.0-44.0","20605","high"
"39","risky","claim","74","red-153","blue-203","safe","risky","1201","bandit-task","46","272240","0.0-45.0","20605","high"
"40","safe","claim","50","red-37","blue-118","safe","risky","1034","bandit-task","47","276376","0.0-46.0","20605","high"
"41","risky","claim","38","red-129","blue-45","safe","risky","1890","bandit-task","48","281030","0.0-47.0","20605","high"
"42","risky","claim","39","red-77","blue-30","safe","risky","660","bandit-task","49","284919","0.0-48.0","20605","high"
"43","safe","claim","49","red-15","blue-160","safe","risky","1035","bandit-task","50","288833","0.0-49.0","20605","high"
"44","risky","claim","69","red-11","blue-97","safe","risky","489","bandit-task","51","291907","0.0-50.0","20605","high"
"45","risky","claim","72","red-159","blue-94","safe","risky","717","bandit-task","52","295740","0.0-51.0","20605","high"
"46","risky","claim","28","red-6","blue-88","safe","risky","631","bandit-task","53","299339","0.0-52.0","20605","high"
"47","safe","claim","49","red-173","blue-44","safe","risky","882","bandit-task","54","303378","0.0-53.0","20605","high"
"48","safe","claim","50","red-90","blue-195","safe","risky","1094","bandit-task","55","307528","0.0-54.0","20605","high"
"49","safe","claim","51","red-26","blue-171","safe","risky","769","bandit-task","56","311168","0.0-55.0","20605","high"
"50","risky","claim","61","red-133","blue-82","safe","risky","463","bandit-task","57","314422","0.0-56.0","20605","high"
"51","safe","observe","52","red-194","blue-128","safe","risky","993","bandit-task","58","318394","0.0-57.0","20605","high"
"52","risky","claim","37","red-135","blue-186","safe","risky","1190","bandit-task","59","322448","0.0-58.0","20605","high"
"53","safe","claim","50","red-166","blue-130","safe","risky","902","bandit-task","60","326382","0.0-59.0","20605","high"
"54","risky","observe","30","red-134","blue-80","safe","risky","696","bandit-task","61","330480","0.0-60.0","20605","high"
"55","safe","observe","50","red-189","blue-136","safe","risky","531","bandit-task","62","334138","0.0-61.0","20605","high"
"56","risky","claim","17","red-152","blue-91","safe","risky","799","bandit-task","63","338308","0.0-62.0","20605","high"
"57","safe","claim","50","red-34","blue-84","safe","risky","574","bandit-task","64","344020","0.0-63.0","20605","high"
"58","risky","claim","45","red-137","blue-154","safe","risky","348","bandit-task","65","347234","0.0-64.0","20605","high"
"59","risky","claim","33","red-59","blue-64","safe","risky","366","bandit-task","66","350382","0.0-65.0","20605","high"
"60","risky","claim","34","red-107","blue-147","safe","risky","384","bandit-task","67","353708","0.0-66.0","20605","high"
"61","risky","claim","34","red-181","blue-112","safe","risky","630","bandit-task","68","357229","0.0-67.0","20605","high"
"62","risky","claim","40","red-123","blue-9","safe","risky","436","bandit-task","69","360922","0.0-68.0","20605","high"
"63","risky","claim","61","red-167","blue-74","safe","risky","394","bandit-task","70","364475","0.0-69.0","20605","high"
"64","risky","claim","64","red-198","blue-53","safe","risky","420","bandit-task","71","367994","0.0-70.0","20605","high"
"65","risky","claim","72","red-184","blue-140","safe","risky","513","bandit-task","72","371299","0.0-71.0","20605","high"
"66","risky","claim","41","red-35","blue-200","safe","risky","681","bandit-task","73","374888","0.0-72.0","20605","high"
"67","safe","claim","51","red-190","blue-28","safe","risky","531","bandit-task","74","378252","0.0-73.0","20605","high"
"68","safe","claim","51","red-150","blue-174","safe","risky","761","bandit-task","75","381960","0.0-74.0","20605","high"
"69","safe","claim","50","red-126","blue-76","safe","risky","727","bandit-task","76","385650","0.0-75.0","20605","high"
"70","risky","claim","77","red-10","blue-191","safe","risky","1118","bandit-task","77","389533","0.0-76.0","20605","high"
"71","risky","claim","48","red-163","blue-81","safe","risky","450","bandit-task","78","392758","0.0-77.0","20605","high"
"72","safe","claim","49","red-104","blue-161","safe","risky","670","bandit-task","79","396197","0.0-78.0","20605","high"
"73","risky","claim","84","red-98","blue-21","safe","risky","322","bandit-task","80","399569","0.0-79.0","20605","high"
"74","risky","claim","70","red-146","blue-96","safe","risky","362","bandit-task","81","402694","0.0-80.0","20605","high"
"75","risky","claim","76","red-23","blue-201","safe","risky","373","bandit-task","82","405869","0.0-81.0","20605","high"
"76","risky","claim","37","red-193","blue-65","safe","risky","381","bandit-task","83","409079","0.0-82.0","20605","high"
"77","risky","claim","75","red-103","blue-52","safe","risky","378","bandit-task","84","412299","0.0-83.0","20605","high"
"78","risky","claim","39","red-17","blue-85","safe","risky","408","bandit-task","85","415592","0.0-84.0","20605","high"
"79","risky","claim","21","red-111","blue-162","safe","risky","379","bandit-task","86","418879","0.0-85.0","20605","high"
"80","risky","claim","16","red-61","blue-185","safe","risky","409","bandit-task","87","422201","0.0-86.0","20605","high"
"81","risky","claim","83","red-24","blue-67","safe","risky","388","bandit-task","88","425420","0.0-87.0","20605","high"
"82","risky","claim","57","red-33","blue-1","safe","risky","466","bandit-task","89","428909","0.0-88.0","20605","high"
"83","risky","claim","90","red-86","blue-192","safe","risky","562","bandit-task","90","432332","0.0-89.0","20605","high"
"84","risky","claim","67","red-145","blue-83","safe","risky","379","bandit-task","91","435597","0.0-90.0","20605","high"
"85","risky","claim","44","red-3","blue-180","safe","risky","371","bandit-task","92","438738","0.0-91.0","20605","high"
"86","safe","claim","50","red-165","blue-143","safe","risky","379","bandit-task","93","441937","0.0-92.0","20605","high"
"87","risky","claim","70","red-60","blue-51","safe","risky","344","bandit-task","94","445533","0.0-93.0","20605","high"
"88","safe","claim","49","red-109","blue-14","safe","risky","384","bandit-task","95","449051","0.0-94.0","20605","high"
"89","risky","claim","40","red-99","blue-115","safe","risky","376","bandit-task","96","452682","0.0-95.0","20605","high"
"90","risky","claim","82","red-49","blue-114","safe","risky","560","bandit-task","97","456479","0.0-96.0","20605","high"
"91","safe","claim","51","red-122","blue-50","safe","risky","615","bandit-task","98","459901","0.0-97.0","20605","high"
"92","risky","claim","35","red-170","blue-142","safe","risky","345","bandit-task","99","463170","0.0-98.0","20605","high"
"93","safe","claim","52","red-92","blue-204","safe","risky","535","bandit-task","100","466929","0.0-99.0","20605","high"
"94","risky","claim","70","red-87","blue-46","safe","risky","379","bandit-task","101","470244","0.0-100.0","20605","high"
"95","safe","claim","51","red-179","blue-110","safe","risky","426","bandit-task","102","473581","0.0-101.0","20605","high"
"96","risky","claim","26","red-105","blue-63","safe","risky","654","bandit-task","103","477502","0.0-102.0","20605","high"
"97","risky","claim","29","red-116","blue-175","safe","risky","342","bandit-task","104","480801","0.0-103.0","20605","high"
"98","risky","claim","79","red-168","blue-79","safe","risky","380","bandit-task","105","484558","0.0-104.0","20605","high"
"99","risky","claim","81","red-29","blue-157","safe","risky","905","bandit-task","106","488602","0.0-105.0","20605","high"
