"trial","choice","action","feedback","left_stimulus","right_stimulus","left_option","right_option","rt","trial_type","trial_index","time_elapsed","internal_node_id","participant","condition"
"0","safe","claim","50","red-118","blue-114","safe","risky","3108","bandit-task","7","853350","0.0-6.0","20802","low"
"1","risky","observe","35","red-118","blue-114","safe","risky","3245","bandit-task","8","861007","0.0-7.0","20802","low"
"2","risky","claim","37","red-118","blue-114","safe","risky","3797","bandit-task","9","870009","0.0-8.0","20802","low"
"3","safe","observe","50","red-118","blue-114","safe","risky","2157","bandit-task","10","877138","0.0-9.0","20802","low"
"4","safe","claim","49","red-118","blue-114","safe","risky","918","bandit-task","11","883027","0.0-10.0","20802","low"
"5","risky","observe","66","red-118","blue-114","safe","risky","902","bandit-task","12","887998","0.0-11.0","20802","low"
"6","safe","observe","50","red-118","blue-114","safe","risky","1068","bandit-task","13","893733","0.0-12.0","20802","low"
"7","safe","claim","51","red-118","blue-114","safe","risky","1214","bandit-task","14","900534","0.0-13.0","20802","low"
"8","risky","claim","14","red-118","blue-114","safe","risky","1006","bandit-task","15","906224","0.0-14.0","20802","low"
"9","safe","observe","50","red-118","blue-114","safe","risky","669","bandit-task","16","911224","0.0-15.0","20802","low"
"10","safe","observe","50","red-118","blue-114","safe","risky","10176","bandit-task","17","925227","0.0-16.0","20802","low"
"11","safe","claim","51","red-118","blue-114","safe","risky","526","bandit-task","18","929148","0.0-17.0","20802","low"
"12","safe","claim","49","red-118","blue-114","safe","risky","597","bandit-task","19","934277","0.0-18.0","20802","low"
"13","safe","claim","50","red-118","blue-114","safe","risky","814","bandit-task","20","940095","0.0-19.0","20802","low"
"14","risky","observe","34","red-118","blue-114","safe","risky","629","bandit-task","21","944223","0.0-20.0","20802","low"
"15","safe","claim","50","red-118","blue-114","safe","risky","531","bandit-task","22","949368","0.0-21.0","20802","low"
"16","safe","claim","50","red-118","blue-114","safe","risky","701","bandit-task","23","953943","0.0-22.0","20802","low"
"17","safe","claim","49","red-118","blue-114","safe","risky","486","bandit-task","24","957505","0.0-23.0","20802","low"
"18","risky","claim","53","red-118","blue-114","safe","risky","420","bandit-task","25","964426","0.0-24.0","20802","low"
"19","safe","claim","51","red-118","blue-114","safe","risky","621","bandit-task","26","969443","0.0-25.0","20802","low"
"20","risky","observe","49","red-118","blue-114","safe","risky","869","bandit-task","27","974101","0.0-26.0","20802","low"
"21","safe","observe","49","red-118","blue-114","safe","risky","612","bandit-task","28","978228","0.0-27.0","20802","low"
"22","safe","claim","49","red-118","blue-114","safe","risky","669","bandit-task","29","982558","0.0-28.0","20802","low"
"23","safe","observe","51","red-118","blue-114","safe","risky","1277","bandit-task","30","987126","0.0-29.0","20802","low"
"24","safe","claim","50","red-118","blue-114","safe","risky","604","bandit-task","31","991559","0.0-30.0","20802","low"
"25","safe","claim","51","red-118","blue-114","safe","risky","461","bandit-task","32","995231","0.0-31.0","20802","low"
"26","safe","claim","49","red-118","blue-114","safe","risky","590","bandit-task","33","999136","0.0-32.0","20802","low"
"27","safe","claim","47","red-118","blue-114","safe","risky","453","bandit-task","34","1002737","0.0-33.0","20802","low"
"28","safe","claim","50","red-118","blue-114","safe","risky","558","bandit-task","35","1006346","0.0-34.0","20802","low"
"29","safe","claim","49","red-118","blue-114","safe","risky","501","bandit-task","36","1010187","0.0-35.0","20802","low"
"30","safe","claim","49","red-118","blue-114","safe","risky","444","bandit-task","37","1013891","0.0-36.0","20802","low"
"31","safe","claim","49","red-118","blue-114","safe","risky","749","bandit-task","38","1017909","0.0-37.0","20802","low"
"32","safe","claim","49","red-118","blue-114","safe","risky","1092","bandit-task","39","1022477","0.0-38.0","20802","low"
"33","safe","claim","49","red-118","blue-114","safe","risky","749","bandit-task","40","1027198","0.0-39.0","20802","low"
"34","safe","claim","49","red-118","blue-114","safe","risky","740","bandit-task","41","1031831","0.0-40.0","20802","low"
"35","safe","claim","50","red-118","blue-114","safe","risky","629","bandit-task","42","1035615","0.0-41.0","20802","low"
"36","safe","claim","50","red-118","blue-114","safe","risky","622","bandit-task","43","1039584","0.0-42.0","20802","low"
"37","safe","claim","51","red-118","blue-114","safe","risky","669","bandit-task","44","1043514","0.0-43.0","20802","low"
"38","safe","claim","49","red-118","blue-114","safe","risky","612","bandit-task","45","1047458","0.0-44.0","20802","low"
"39","safe","observe","48","red-118","blue-114","safe","risky","813","bandit-task","46","1052059","0.0-45.0","20802","low"
"40","safe","claim","52","red-118","blue-114","safe","risky","580","bandit-task","47","1055828","0.0-46.0","20802","low"
"41","safe","claim","49","red-118","blue-114","safe","risky","565","bandit-task","48","1059796","0.0-47.0","20802","low"
"42","safe","claim","50","red-118","blue-114","safe","risky","579","bandit-task","49","1063541","0.0-48.0","20802","low"
"43","safe","claim","49","red-118","blue-114","safe","risky","628","bandit-task","50","1067446","0.0-49.0","20802","low"
"44","risky","claim","42","red-118","blue-114","safe","risky","1045","bandit-task","51","1071919","0.0-50.0","20802","low"
"45","safe","claim","52","red-118","blue-114","safe","risky","557","bandit-task","52","1076544","0.0-51.0","20802","low"
"46","safe","claim","50","red-118","blue-114","safe","risky","758","bandit-task","53","1080489","0.0-52.0","20802","low"
"47","safe","claim","50","red-118","blue-114","safe","risky","478","bandit-task","54","1084217","0.0-53.0","20802","low"
"48","safe","claim","48","red-118","blue-114","safe","risky","533","bandit-task","55","1088122","0.0-54.0","20802","low"
"49","safe","claim","50","red-118","blue-114","safe","risky","492","bandit-task","56","1091979","0.0-55.0","20802","low"
"50","safe","claim","52","red-118","blue-114","safe","risky","461","bandit-task","57","1096084","0.0-56.0","20802","low"
"51","safe","observe","50","red-118","blue-114","safe","risky","581","bandit-task","58","1099693","0.0-57.0","20802","low"
"52","safe","claim","50","red-118","blue-114","safe","risky","461","bandit-task","59","1103525","0.0-58.0","20802","low"
"53","safe","claim","50","red-118","blue-114","safe","risky","357","bandit-task","60","1106903","0.0-59.0","20802","low"
"54","safe","claim","50","red-118","blue-114","safe","risky","364","bandit-task","61","1110286","0.0-60.0","20802","low"
"55","safe","claim","49","red-118","blue-114","safe","risky","334","bandit-task","62","1113584","0.0-61.0","20802","low"
"56","safe","claim","51","red-118","blue-114","safe","risky","269","bandit-task","63","1116727","0.0-62.0","20802","low"
"57","safe","claim","50","red-118","blue-114","safe","risky","332","bandit-task","64","1120696","0.0-63.0","20802","low"
"58","safe","claim","51","red-118","blue-114","safe","risky","806","bandit-task","65","1124745","0.0-64.0","20802","low"
"59","safe","claim","51","red-118","blue-114","safe","risky","405","bandit-task","66","1128593","0.0-65.0","20802","low"
"60","safe","claim","51","red-118","blue-114","safe","risky","333","bandit-task","67","1132042","0.0-66.0","20802","low"
"61","safe","claim","51","red-118","blue-114","safe","risky","349","bandit-task","68","1135819","0.0-67.0","20802","low"
"62","safe","claim","49","red-118","blue-114","safe","risky","397","bandit-task","69","1139171","0.0-68.0","20802","low"
"63","risky","claim","70","red-118","blue-114","safe","risky","501","bandit-task","70","1143188","0.0-69.0","20802","low"
"64","safe","claim","51","red-118","blue-114","safe","risky","325","bandit-task","71","1146636","0.0-70.0","20802","low"
"65","safe","claim","50","red-118","blue-114","safe","risky","269","bandit-task","72","1150381","0.0-71.0","20802","low"
"66","safe","claim","50","red-118","blue-114","safe","risky","341","bandit-task","73","1154174","0.0-72.0","20802","low"
"67","safe","claim","49","red-118","blue-114","safe","risky","276","bandit-task","74","1157430","0.0-73.0","20802","low"
"68","safe","claim","49","red-118","blue-114","safe","risky","293","bandit-task","75","1160528","0.0-74.0","20802","low"
"69","safe","claim","51","red-118","blue-114","safe","risky","333","bandit-task","76","1163775","0.0-75.0","20802","low"
"70","safe","claim","50","red-118","blue-114","safe","risky","341","bandit-task","77","1167177","0.0-76.0","20802","low"
"71","safe","claim","52","red-118","blue-114","safe","risky","310","bandit-task","78","1170408","0.0-77.0","20802","low"
"72","safe","claim","51","red-118","blue-114","safe","risky","461","bandit-task","79","1174050","0.0-78.0","20802","low"
"73","safe","claim","52","red-118","blue-114","safe","risky","301","bandit-task","80","1177274","0.0-79.0","20802","low"
"74","safe","claim","50","red-118","blue-114","safe","risky","317","bandit-task","81","1180402","0.0-80.0","20802","low"
"75","safe","claim","49","red-118","blue-114","safe","risky","334","bandit-task","82","1183819","0.0-81.0","20802","low"
"76","safe","claim","51","red-118","blue-114","safe","risky","261","bandit-task","83","1187004","0.0-82.0","20802","low"
"77","safe","claim","49","red-118","blue-114","safe","risky","270","bandit-task","84","1190228","0.0-83.0","20802","low"
"78","safe","claim","50","red-118","blue-114","safe","risky","254","bandit-task","85","1193894","0.0-84.0","20802","low"
"79","safe","claim","51","red-118","blue-114","safe","risky","317","bandit-task","86","1197207","0.0-85.0","20802","low"
"80","safe","claim","50","red-118","blue-114","safe","risky","325","bandit-task","87","1200519","0.0-86.0","20802","low"
"81","safe","claim","49","red-118","blue-114","safe","risky","350","bandit-task","88","1204056","0.0-87.0","20802","low"
"82","safe","claim","50","red-118","blue-114","safe","risky","333","bandit-task","89","1207233","0.0-88.0","20802","low"
"83","safe","claim","49","red-118","blue-114","safe","risky","293","bandit-task","90","1210465","0.0-89.0","20802","low"
"84","safe","claim","50","red-118","blue-114","safe","risky","325","bandit-task","91","1213697","0.0-90.0","20802","low"
"85","safe","claim","48","red-118","blue-114","safe","risky","284","bandit-task","92","1216779","0.0-91.0","20802","low"
"86","safe","claim","52","red-118","blue-114","safe","risky","349","bandit-task","93","1219979","0.0-92.0","20802","low"
"87","safe","claim","51","red-118","blue-114","safe","risky","358","bandit-task","94","1223268","0.0-93.0","20802","low"
"88","safe","claim","49","red-118","blue-114","safe","risky","341","bandit-task","95","1226644","0.0-94.0","20802","low"
"89","safe","claim","47","red-118","blue-114","safe","risky","245","bandit-task","96","1229989","0.0-95.0","20802","low"
"90","safe","claim","50","red-118","blue-114","safe","risky","268","bandit-task","97","1233221","0.0-96.0","20802","low"
"91","safe","claim","51","red-118","blue-114","safe","risky","318","bandit-task","98","1236391","0.0-97.0","20802","low"
"92","safe","claim","49","red-118","blue-114","safe","risky","290","bandit-task","99","1239664","0.0-98.0","20802","low"
"93","safe","claim","50","red-118","blue-114","safe","risky","233","bandit-task","100","1242719","0.0-99.0","20802","low"
"94","safe","claim","51","red-118","blue-114","safe","risky","301","bandit-task","101","1246784","0.0-100.0","20802","low"
"95","risky","claim","67","red-118","blue-114","safe","risky","277","bandit-task","102","1250528","0.0-101.0","20802","low"
"96","safe","claim","51","red-118","blue-114","safe","risky","268","bandit-task","103","1254225","0.0-102.0","20802","low"
"97","safe","claim","49","red-118","blue-114","safe","risky","252","bandit-task","104","1257425","0.0-103.0","20802","low"
"98","safe","claim","48","red-118","blue-114","safe","risky","482","bandit-task","105","1260850","0.0-104.0","20802","low"
"99","safe","claim","50","red-118","blue-114","safe","risky","300","bandit-task","106","1263962","0.0-105.0","20802","low"
