"trial","choice","action","feedback","left_stimulus","right_stimulus","left_option","right_option","rt","trial_type","trial_index","time_elapsed","internal_node_id","participant","condition"
"0","risky","observe","29","blue-161","red-164","risky","safe","4114","bandit-task","7","354715","0.0-6.0","20822","low"
"1","risky","claim","73","blue-161","red-164","risky","safe","1970","bandit-task","8","360527","0.0-7.0","20822","low"
"2","safe","observe","50","blue-161","red-164","risky","safe","500","bandit-task","9","364551","0.0-8.0","20822","low"
"3","risky","claim","38","blue-161","red-164","risky","safe","2405","bandit-task","10","370882","0.0-9.0","20822","low"
"4","safe","claim","49","blue-161","red-164","risky","safe","676","bandit-task","11","375775","0.0-10.0","20822","low"
"5","risky","observe","16","blue-161","red-164","risky","safe","480","bandit-task","12","379593","0.0-11.0","20822","low"
"6","risky","claim","55","blue-161","red-164","risky","safe","1520","bandit-task","13","385145","0.0-12.0","20822","low"
"7","safe","observe","51","blue-161","red-164","risky","safe","512","bandit-task","14","389604","0.0-13.0","20822","low"
"8","risky","observe","75","blue-161","red-164","risky","safe","567","bandit-task","15","393493","0.0-14.0","20822","low"
"9","safe","observe","49","blue-161","red-164","risky","safe","467","bandit-task","16","398896","0.0-15.0","20822","low"
"10","safe","claim","50","blue-161","red-164","risky","safe","1474","bandit-task","17","405125","0.0-16.0","20822","low"
"11","risky","claim","28","blue-161","red-164","risky","safe","1416","bandit-task","18","410323","0.0-17.0","20822","low"
"12","safe","observe","49","blue-161","red-164","risky","safe","508","bandit-task","19","414482","0.0-18.0","20822","low"
"13","risky","observe","71","blue-161","red-164","risky","safe","472","bandit-task","20","418027","0.0-19.0","20822","low"
"14","risky","claim","39","blue-161","red-164","risky","safe","461","bandit-task","21","423669","0.0-20.0","20822","low"
"15","risky","claim","73","blue-161","red-164","risky","safe","490","bandit-task","22","427740","0.0-21.0","20822","low"
"16","safe","observe","49","blue-161","red-164","risky","safe","488","bandit-task","23","431958","0.0-22.0","20822","low"
"17","risky","observe","73","blue-161","red-164","risky","safe","515","bandit-task","24","437252","0.0-23.0","20822","low"
"18","risky","claim","33","blue-161","red-164","risky","safe","507","bandit-task","25","442244","0.0-24.0","20822","low"
"19","risky","claim","72","blue-161","red-164","risky","safe","482","bandit-task","26","446485","0.0-25.0","20822","low"
"20","risky","claim","47","blue-161","red-164","risky","safe","459","bandit-task","27","450517","0.0-26.0","20822","low"
"21","safe","observe","48","blue-161","red-164","risky","safe","600","bandit-task","28","455067","0.0-27.0","20822","low"
"22","risky","observe","45","blue-161","red-164","risky","safe","401","bandit-task","29","459146","0.0-28.0","20822","low"
"23","safe","claim","50","blue-161","red-164","risky","safe","524","bandit-task","30","463446","0.0-29.0","20822","low"
"24","safe","claim","48","blue-161","red-164","risky","safe","392","bandit-task","31","467167","0.0-30.0","20822","low"
"25","safe","observe","49","blue-161","red-164","risky","safe","532","bandit-task","32","470788","0.0-31.0","20822","low"
"26","risky","observe","59","blue-161","red-164","risky","safe","444","bandit-task","33","475316","0.0-32.0","20822","low"
"27","risky","observe","31","blue-161","red-164","risky","safe","880","bandit-task","34","479394","0.0-33.0","20822","low"
"28","safe","claim","50","blue-161","red-164","risky","safe","485","bandit-task","35","483817","0.0-34.0","20822","low"
"29","risky","claim","62","blue-161","red-164","risky","safe","388","bandit-task","36","487906","0.0-35.0","20822","low"
"30","risky","claim","68","blue-161","red-164","risky","safe","502","bandit-task","37","492340","0.0-36.0","20822","low"
"31","safe","claim","50","blue-161","red-164","risky","safe","338","bandit-task","38","496399","0.0-37.0","20822","low"
"32","safe","observe","50","blue-161","red-164","risky","safe","417","bandit-task","39","500965","0.0-38.0","20822","low"
"33","risky","claim","24","blue-161","red-164","risky","safe","609","bandit-task","40","504949","0.0-39.0","20822","low"
"34","risky","claim","63","blue-161","red-164","risky","safe","420","bandit-task","41","509927","0.0-40.0","20822","low"
"35","risky","observe","30","blue-161","red-164","risky","safe","452","bandit-task","42","513936","0.0-41.0","20822","low"
"36","safe","observe","49","blue-161","red-164","risky","safe","364","bandit-task","43","517723","0.0-42.0","20822","low"
"37","safe","claim","50","blue-161","red-164","risky","safe","753","bandit-task","44","522038","0.0-43.0","20822","low"
"38","safe","claim","51","blue-161","red-164","risky","safe","479","bandit-task","45","526461","0.0-44.0","20822","low"
"39","safe","claim","50","blue-161","red-164","risky","safe","568","bandit-task","46","530687","0.0-45.0","20822","low"
"40","risky","claim","60","blue-161","red-164","risky","safe","435","bandit-task","47","534949","0.0-46.0","20822","low"
"41","risky","claim","74","blue-161","red-164","risky","safe","436","bandit-task","48","543642","0.0-47.0","20822","low"
"42","risky","claim","24","blue-161","red-164","risky","safe","527","bandit-task","49","548458","0.0-48.0","20822","low"
"43","safe","claim","50","blue-161","red-164","risky","safe","414","bandit-task","50","552678","0.0-49.0","20822","low"
"44","risky","observe","32","blue-161","red-164","risky","safe","458","bandit-task","51","556629","0.0-50.0","20822","low"
"45","safe","observe","51","blue-161","red-164","risky","safe","511","bandit-task","52","560463","0.0-51.0","20822","low"
"46","safe","claim","51","blue-161","red-164","risky","safe","762","bandit-task","53","564883","0.0-52.0","20822","low"
"47","safe","claim","51","blue-161","red-164","risky","safe","457","bandit-task","54","569256","0.0-53.0","20822","low"
"48","safe","claim","50","blue-161","red-164","risky","safe","517","bandit-task","55","573323","0.0-54.0","20822","low"
"49","risky","observe","38","blue-161","red-164","risky","safe","425","bandit-task","56","577105","0.0-55.0","20822","low"
"50","safe","observe","51","blue-161","red-164","risky","safe","566","bandit-task","57","580889","0.0-56.0","20822","low"
"51","safe","observe","49","blue-161","red-164","risky","safe","492","bandit-task","58","584827","0.0-57.0","20822","low"
"52","risky","claim","65","blue-161","red-164","risky","safe","449","bandit-task","59","588892","0.0-58.0","20822","low"
"53","risky","observe","68","blue-161","red-164","risky","safe","424","bandit-task","60","592511","0.0-59.0","20822","low"
"54","risky","claim","84","blue-161","red-164","risky","safe","472","bandit-task","61","596571","0.0-60.0","20822","low"
"55","risky","claim","17","blue-161","red-164","risky","safe","450","bandit-task","62","601166","0.0-61.0","20822","low"
"56","risky","claim","74","blue-161","red-164","risky","safe","462","bandit-task","63","611077","0.0-62.0","20822","low"
"57","safe","claim","51","blue-161","red-164","risky","safe","743","bandit-task","64","616280","0.0-63.0","20822","low"
"58","risky","observe","46","blue-161","red-164","risky","safe","756","bandit-task","65","620251","0.0-64.0","20822","low"
"59","safe","observe","49","blue-161","red-164","risky","safe","411","bandit-task","66","623797","0.0-65.0","20822","low"
"60","safe","claim","50","blue-161","red-164","risky","safe","438","bandit-task","67","627819","0.0-66.0","20822","low"
"61","safe","claim","48","blue-161","red-164","risky","safe","369","bandit-task","68","632087","0.0-67.0","20822","low"
"62","risky","observe","31","blue-161","red-164","risky","safe","482","bandit-task","69","636181","0.0-68.0","20822","low"
"63","safe","observe","49","blue-161","red-164","risky","safe","534","bandit-task","70","640157","0.0-69.0","20822","low"
"64","safe","claim","49","blue-161","red-164","risky","safe","517","bandit-task","71","645384","0.0-70.0","20822","low"
"65","safe","claim","49","blue-161","red-164","risky","safe","582","bandit-task","72","654099","0.0-71.0","20822","low"
"66","safe","claim","51","blue-161","red-164","risky","safe","791","bandit-task","73","658968","0.0-72.0","20822","low"
"67","risky","observe","25","blue-161","red-164","risky","safe","332","bandit-task","74","667493","0.0-73.0","20822","low"
"68","safe","claim","51","blue-161","red-164","risky","safe","497","bandit-task","75","672443","0.0-74.0","20822","low"
"69","safe","claim","49","blue-161","red-164","risky","safe","523","bandit-task","76","677847","0.0-75.0","20822","low"
"70","risky","observe","68","blue-161","red-164","risky","safe","591","bandit-task","77","682950","0.0-76.0","20822","low"
"71","safe","observe","50","blue-161","red-164","risky","safe","385","bandit-task","78","687868","0.0-77.0","20822","low"
"72","risky","claim","78","blue-161","red-164","risky","safe","467","bandit-task","79","692470","0.0-78.0","20822","low"
"73","risky","claim","34","blue-161","red-164","risky","safe","548","bandit-task","80","697147","0.0-79.0","20822","low"
"74","risky","claim","28","blue-161","red-164","risky","safe","457","bandit-task","81","701225","0.0-80.0","20822","low"
"75","safe","observe","50","blue-161","red-164","risky","safe","372","bandit-task","82","705202","0.0-81.0","20822","low"
"76","safe","claim","52","blue-161","red-164","risky","safe","435","bandit-task","83","709338","0.0-82.0","20822","low"
"77","safe","claim","50","blue-161","red-164","risky","safe","368","bandit-task","84","713557","0.0-83.0","20822","low"
"78","risky","claim","60","blue-161","red-164","risky","safe","641","bandit-task","85","717657","0.0-84.0","20822","low"
"79","safe","claim","49","blue-161","red-164","risky","safe","582","bandit-task","86","721823","0.0-85.0","20822","low"
"80","safe","claim","52","blue-161","red-164","risky","safe","464","bandit-task","87","725946","0.0-86.0","20822","low"
"81","risky","claim","67","blue-161","red-164","risky","safe","383","bandit-task","88","729779","0.0-87.0","20822","low"
"82","safe","observe","50","blue-161","red-164","risky","safe","474","bandit-task","89","733244","0.0-88.0","20822","low"
"83","risky","observe","29","blue-161","red-164","risky","safe","357","bandit-task","90","736710","0.0-89.0","20822","low"
"84","safe","claim","50","blue-161","red-164","risky","safe","400","bandit-task","91","740288","0.0-90.0","20822","low"
"85","safe","claim","51","blue-161","red-164","risky","safe","363","bandit-task","92","744006","0.0-91.0","20822","low"
"86","safe","claim","49","blue-161","red-164","risky","safe","692","bandit-task","93","748120","0.0-92.0","20822","low"
"87","risky","observe","53","blue-161","red-164","risky","safe","494","bandit-task","94","752027","0.0-93.0","20822","low"
"88","safe","observe","50","blue-161","red-164","risky","safe","378","bandit-task","95","755398","0.0-94.0","20822","low"
"89","risky","claim","75","blue-161","red-164","risky","safe","471","bandit-task","96","759361","0.0-95.0","20822","low"
"90","risky","claim","43","blue-161","red-164","risky","safe","367","bandit-task","97","763129","0.0-96.0","20822","low"
"91","risky","claim","58","blue-161","red-164","risky","safe","417","bandit-task","98","767403","0.0-97.0","20822","low"
"92","safe","claim","51","blue-161","red-164","risky","safe","621","bandit-task","99","771477","0.0-98.0","20822","low"
"93","safe","claim","49","blue-161","red-164","risky","safe","552","bandit-task","100","775462","0.0-99.0","20822","low"
"94","risky","claim","41","blue-161","red-164","risky","safe","524","bandit-task","101","779333","0.0-100.0","20822","low"
"95","risky","observe","62","blue-161","red-164","risky","safe","596","bandit-task","102","783279","0.0-101.0","20822","low"
"96","risky","claim","75","blue-161","red-164","risky","safe","394","bandit-task","103","787312","0.0-102.0","20822","low"
"97","safe","claim","51","blue-161","red-164","risky","safe","530","bandit-task","104","791363","0.0-103.0","20822","low"
"98","risky","claim","56","blue-161","red-164","risky","safe","503","bandit-task","105","795043","0.0-104.0","20822","low"
"99","safe","claim","50","blue-161","red-164","risky","safe","422","bandit-task","106","799174","0.0-105.0","20822","low"
