"trial","choice","action","feedback","left_stimulus","right_stimulus","left_option","right_option","rt","trial_type","trial_index","time_elapsed","internal_node_id","participant","condition"
"0","safe","observe","50","blue-141","red-92","safe","risky","1578","bandit-task","7","292416","0.0-6.0","20504","high"
"1","safe","claim","50","blue-159","red-202","safe","risky","938","bandit-task","8","305137","0.0-7.0","20504","high"
"2","risky","claim","24","blue-152","red-154","safe","risky","1616","bandit-task","9","310594","0.0-8.0","20504","high"
"3","safe","observe","49","blue-175","red-77","safe","risky","2395","bandit-task","10","317060","0.0-9.0","20504","high"
"4","safe","claim","50","blue-160","red-114","safe","risky","4025","bandit-task","11","325616","0.0-10.0","20504","high"
"5","safe","observe","50","blue-177","red-143","safe","risky","1203","bandit-task","12","332370","0.0-11.0","20504","high"
"6","risky","claim","81","blue-183","red-67","safe","risky","1312","bandit-task","13","338420","0.0-12.0","20504","high"
"7","safe","claim","50","blue-79","red-104","safe","risky","1353","bandit-task","14","344779","0.0-13.0","20504","high"
"8","safe","claim","49","blue-90","red-156","safe","risky","1149","bandit-task","15","350852","0.0-14.0","20504","high"
"9","risky","claim","23","blue-10","red-51","safe","risky","1284","bandit-task","16","356977","0.0-15.0","20504","high"
"10","safe","claim","50","blue-97","red-162","safe","risky","1065","bandit-task","17","362584","0.0-16.0","20504","high"
"11","safe","claim","49","blue-75","red-161","safe","risky","570","bandit-task","18","366783","0.0-17.0","20504","high"
"12","safe","claim","49","blue-100","red-173","safe","risky","627","bandit-task","19","371615","0.0-18.0","20504","high"
"13","risky","claim","61","blue-13","red-170","safe","risky","569","bandit-task","20","375899","0.0-19.0","20504","high"
"14","safe","claim","50","blue-150","red-166","safe","risky","663","bandit-task","21","380101","0.0-20.0","20504","high"
"15","risky","claim","21","blue-22","red-88","safe","risky","677","bandit-task","22","384927","0.0-21.0","20504","high"
"16","safe","claim","49","blue-102","red-188","safe","risky","829","bandit-task","23","389908","0.0-22.0","20504","high"
"17","risky","claim","66","blue-41","red-134","safe","risky","706","bandit-task","24","394102","0.0-23.0","20504","high"
"18","safe","claim","48","blue-58","red-25","safe","risky","591","bandit-task","25","398485","0.0-24.0","20504","high"
"19","safe","claim","51","blue-76","red-63","safe","risky","27240","bandit-task","26","430096","0.0-25.0","20504","high"
"20","safe","claim","51","blue-96","red-93","safe","risky","1166","bandit-task","27","436206","0.0-26.0","20504","high"
"21","risky","observe","16","blue-123","red-106","safe","risky","1030","bandit-task","28","441966","0.0-27.0","20504","high"
"22","safe","claim","50","blue-4","red-139","safe","risky","1031","bandit-task","29","447837","0.0-28.0","20504","high"
"23","safe","claim","51","blue-194","red-1","safe","risky","1077","bandit-task","30","453595","0.0-29.0","20504","high"
"24","safe","claim","50","blue-163","red-140","safe","risky","1262","bandit-task","31","459976","0.0-30.0","20504","high"
"25","safe","claim","50","blue-24","red-61","safe","risky","1112","bandit-task","32","465965","0.0-31.0","20504","high"
"26","safe","claim","51","blue-132","red-59","safe","risky","1069","bandit-task","33","472730","0.0-32.0","20504","high"
"27","safe","claim","49","blue-99","red-108","safe","risky","1117","bandit-task","34","478799","0.0-33.0","20504","high"
"28","safe","claim","52","blue-91","red-186","safe","risky","1023","bandit-task","35","484856","0.0-34.0","20504","high"
"29","risky","claim","62","blue-145","red-117","safe","risky","1090","bandit-task","36","492464","0.0-35.0","20504","high"
"30","risky","claim","67","blue-112","red-32","safe","risky","1229","bandit-task","37","498636","0.0-36.0","20504","high"
"31","risky","claim","29","blue-94","red-11","safe","risky","1416","bandit-task","38","505078","0.0-37.0","20504","high"
"32","risky","claim","86","blue-137","red-53","safe","risky","1161","bandit-task","39","511790","0.0-38.0","20504","high"
"33","safe","claim","50","blue-103","red-71","safe","risky","1414","bandit-task","40","518161","0.0-39.0","20504","high"
"34","safe","claim","51","blue-54","red-2","safe","risky","1367","bandit-task","41","524451","0.0-40.0","20504","high"
"35","safe","claim","50","blue-80","red-83","safe","risky","1107","bandit-task","42","530616","0.0-41.0","20504","high"
"36","safe","claim","52","blue-29","red-187","safe","risky","1008","bandit-task","43","538051","0.0-42.0","20504","high"
"37","safe","claim","51","blue-14","red-7","safe","risky","2146","bandit-task","44","545314","0.0-43.0","20504","high"
"38","safe","claim","50","blue-107","red-125","safe","risky","826","bandit-task","45","551019","0.0-44.0","20504","high"
"39","safe","claim","51","blue-78","red-68","safe","risky","1462","bandit-task","46","556905","0.0-45.0","20504","high"
"40","safe","claim","50","blue-201","red-124","safe","risky","704","bandit-task","47","561082","0.0-46.0","20504","high"
"41","safe","claim","50","blue-27","red-45","safe","risky","1125","bandit-task","48","566015","0.0-47.0","20504","high"
"42","risky","claim","38","blue-204","red-55","safe","risky","564","bandit-task","49","570305","0.0-48.0","20504","high"
"43","safe","claim","50","blue-185","red-12","safe","risky","591","bandit-task","50","574515","0.0-49.0","20504","high"
"44","risky","claim","29","blue-146","red-193","safe","risky","845","bandit-task","51","579029","0.0-50.0","20504","high"
"45","safe","claim","51","blue-149","red-57","safe","risky","509","bandit-task","52","582816","0.0-51.0","20504","high"
"46","risky","claim","14","blue-46","red-169","safe","risky","643","bandit-task","53","587311","0.0-52.0","20504","high"
"47","safe","claim","48","blue-44","red-74","safe","risky","533","bandit-task","54","591036","0.0-53.0","20504","high"
"48","safe","claim","49","blue-69","red-56","safe","risky","462","bandit-task","55","594833","0.0-54.0","20504","high"
"49","safe","claim","51","blue-176","red-38","safe","risky","1003","bandit-task","56","599117","0.0-55.0","20504","high"
"50","safe","claim","51","blue-19","red-168","safe","risky","874","bandit-task","57","603447","0.0-56.0","20504","high"
"51","risky","claim","46","blue-133","red-196","safe","risky","993","bandit-task","58","607940","0.0-57.0","20504","high"
"52","safe","claim","47","blue-126","red-200","safe","risky","986","bandit-task","59","612633","0.0-58.0","20504","high"
"53","safe","claim","50","blue-26","red-171","safe","risky","909","bandit-task","60","617982","0.0-59.0","20504","high"
"54","safe","claim","50","blue-42","red-121","safe","risky","1130","bandit-task","61","622800","0.0-60.0","20504","high"
"55","safe","claim","50","blue-120","red-52","safe","risky","819","bandit-task","62","627084","0.0-61.0","20504","high"
"56","risky","claim","72","blue-82","red-199","safe","risky","1374","bandit-task","63","631795","0.0-62.0","20504","high"
"57","safe","claim","51","blue-130","red-48","safe","risky","798","bandit-task","64","636062","0.0-63.0","20504","high"
"58","safe","claim","51","blue-9","red-81","safe","risky","712","bandit-task","65","640032","0.0-64.0","20504","high"
"59","risky","claim","50","blue-164","red-47","safe","risky","742","bandit-task","66","644389","0.0-65.0","20504","high"
"60","safe","claim","52","blue-35","red-3","safe","risky","750","bandit-task","67","648452","0.0-66.0","20504","high"
"61","safe","claim","50","blue-189","red-127","safe","risky","803","bandit-task","68","652952","0.0-67.0","20504","high"
"62","safe","claim","50","blue-72","red-36","safe","risky","672","bandit-task","69","657178","0.0-68.0","20504","high"
"63","safe","claim","51","blue-62","red-118","safe","risky","695","bandit-task","70","661208","0.0-69.0","20504","high"
"64","safe","claim","48","blue-181","red-136","safe","risky","626","bandit-task","71","665137","0.0-70.0","20504","high"
"65","risky","claim","69","blue-40","red-64","safe","risky","843","bandit-task","72","669420","0.0-71.0","20504","high"
"66","risky","claim","23","blue-195","red-20","safe","risky","702","bandit-task","73","673531","0.0-72.0","20504","high"
"67","safe","claim","48","blue-203","red-6","safe","risky","1402","bandit-task","74","678632","0.0-73.0","20504","high"
"68","safe","claim","52","blue-73","red-184","safe","risky","753","bandit-task","75","682762","0.0-74.0","20504","high"
"69","safe","claim","51","blue-33","red-144","safe","risky","483","bandit-task","76","688140","0.0-75.0","20504","high"
"70","safe","claim","49","blue-116","red-147","safe","risky","652","bandit-task","77","692421","0.0-76.0","20504","high"
"71","safe","claim","49","blue-17","red-15","safe","risky","680","bandit-task","78","696555","0.0-77.0","20504","high"
"72","safe","claim","50","blue-43","red-39","safe","risky","952","bandit-task","79","700893","0.0-78.0","20504","high"
"73","risky","claim","37","blue-182","red-101","safe","risky","1075","bandit-task","80","705450","0.0-79.0","20504","high"
"74","safe","claim","49","blue-34","red-167","safe","risky","711","bandit-task","81","709581","0.0-80.0","20504","high"
"75","safe","claim","49","blue-60","red-151","safe","risky","833","bandit-task","82","714374","0.0-81.0","20504","high"
"76","safe","claim","51","blue-111","red-155","safe","risky","1130","bandit-task","83","719311","0.0-82.0","20504","high"
"77","safe","claim","50","blue-119","red-131","safe","risky","1122","bandit-task","84","723892","0.0-83.0","20504","high"
"78","safe","claim","50","blue-135","red-5","safe","risky","897","bandit-task","85","728469","0.0-84.0","20504","high"
"79","safe","claim","50","blue-113","red-50","safe","risky","720","bandit-task","86","732935","0.0-85.0","20504","high"
"80","safe","claim","50","blue-148","red-179","safe","risky","607","bandit-task","87","737690","0.0-86.0","20504","high"
"81","risky","claim","35","blue-172","red-85","safe","risky","773","bandit-task","88","742147","0.0-87.0","20504","high"
"82","safe","claim","51","blue-180","red-174","safe","risky","876","bandit-task","89","747029","0.0-88.0","20504","high"
"83","risky","observe","25","blue-28","red-21","safe","risky","591","bandit-task","90","750959","0.0-89.0","20504","high"
"84","safe","claim","52","blue-23","red-66","safe","risky","481","bandit-task","91","755628","0.0-90.0","20504","high"
"85","safe","claim","51","blue-89","red-70","safe","risky","453","bandit-task","92","759810","0.0-91.0","20504","high"
"86","safe","claim","52","blue-122","red-190","safe","risky","689","bandit-task","93","764178","0.0-92.0","20504","high"
"87","safe","claim","50","blue-16","red-30","safe","risky","752","bandit-task","94","769027","0.0-93.0","20504","high"
"88","safe","claim","49","blue-37","red-65","safe","risky","1634","bandit-task","95","774577","0.0-94.0","20504","high"
"89","risky","observe","33","blue-191","red-178","safe","risky","1919","bandit-task","96","780009","0.0-95.0","20504","high"
"90","safe","claim","51","blue-31","red-192","safe","risky","534","bandit-task","97","785332","0.0-96.0","20504","high"
"91","safe","claim","50","blue-84","red-197","safe","risky","12007","bandit-task","98","801315","0.0-97.0","20504","high"
"92","safe","claim","50","blue-110","red-142","safe","risky","852","bandit-task","99","808218","0.0-98.0","20504","high"
"93","safe","claim","50","blue-165","red-115","safe","risky","719","bandit-task","100","812994","0.0-99.0","20504","high"
"94","safe","claim","52","blue-153","red-198","safe","risky","647","bandit-task","101","817347","0.0-100.0","20504","high"
"95","risky","claim","16","blue-158","red-87","safe","risky","1291","bandit-task","102","822422","0.0-101.0","20504","high"
"96","safe","claim","52","blue-86","red-128","safe","risky","697","bandit-task","103","826652","0.0-102.0","20504","high"
"97","safe","claim","51","blue-157","red-138","safe","risky","828","bandit-task","104","831392","0.0-103.0","20504","high"
"98","safe","claim","49","blue-109","red-8","safe","risky","884","bandit-task","105","836645","0.0-104.0","20504","high"
"99","risky","claim","28","blue-98","red-129","safe","risky","1593","bandit-task","106","843566","0.0-105.0","20504","high"
