"round_number","sample_number","sampling_type","nSamples","mean","feedback","stimulus","stimulus_colour","rt","trial_type","trial_index","time_elapsed","internal_node_id","participant","randomID","condition"
"1","1","fixed","20","74","80","orange-61","orange","7160","sampling-task","6","281262","0.0-5.0-0.0-0.0","109","wmvh3vzw","low"
"1","2","fixed","20","74","77","orange-61","orange","3238","sampling-task","7","286885","0.0-5.0-0.1-0.1","109","wmvh3vzw","low"
"1","3","fixed","20","74","73","orange-61","orange","2430","sampling-task","8","293981","0.0-5.0-0.2-0.2","109","wmvh3vzw","low"
"1","4","fixed","20","74","43","orange-61","orange","1758","sampling-task","9","299685","0.0-5.0-0.3-0.3","109","wmvh3vzw","low"
"1","5","fixed","20","74","79","orange-61","orange","1699","sampling-task","10","305555","0.0-5.0-0.4-0.4","109","wmvh3vzw","low"
"1","6","fixed","20","74","85","orange-61","orange","1181","sampling-task","11","312939","0.0-5.0-0.5-0.5","109","wmvh3vzw","low"
"1","7","fixed","20","74","115","orange-61","orange","1317","sampling-task","12","316539","0.0-5.0-0.6-0.6","109","wmvh3vzw","low"
"1","8","fixed","20","74","48","orange-61","orange","1102","sampling-task","13","319123","0.0-5.0-0.7-0.7","109","wmvh3vzw","low"
"1","9","fixed","20","74","96","orange-61","orange","932","sampling-task","14","321587","0.0-5.0-0.8-0.8","109","wmvh3vzw","low"
"1","10","fixed","20","74","64","orange-61","orange","797","sampling-task","15","323619","0.0-5.0-0.9-0.9","109","wmvh3vzw","low"
"1","11","fixed","20","74","56","orange-61","orange","1598","sampling-task","16","326715","0.0-5.0-0.10-0.10","109","wmvh3vzw","low"
"1","12","fixed","20","74","37","orange-61","orange","1102","sampling-task","17","328971","0.0-5.0-0.11-0.11","109","wmvh3vzw","low"
"1","13","fixed","20","74","59","orange-61","orange","2221","sampling-task","18","332299","0.0-5.0-0.12-0.12","109","wmvh3vzw","low"
"1","14","fixed","20","74","80","orange-61","orange","1325","sampling-task","19","334899","0.0-5.0-0.13-0.13","109","wmvh3vzw","low"
"1","15","fixed","20","74","113","orange-61","orange","1638","sampling-task","20","337819","0.0-5.0-0.14-0.14","109","wmvh3vzw","low"
"1","16","fixed","20","74","67","orange-61","orange","1077","sampling-task","21","340395","0.0-5.0-0.15-0.15","109","wmvh3vzw","low"
"1","17","fixed","20","74","85","orange-61","orange","3974","sampling-task","22","345475","0.0-5.0-0.16-0.16","109","wmvh3vzw","low"
"1","18","fixed","20","74","76","orange-61","orange","1197","sampling-task","23","349115","0.0-5.0-0.17-0.17","109","wmvh3vzw","low"
"1","19","fixed","20","74","73","orange-61","orange","1542","sampling-task","24","351772","0.0-5.0-0.18-0.18","109","wmvh3vzw","low"
"1","20","fixed","20","74","89","orange-61","orange","1252","sampling-task","25","354067","0.0-5.0-0.19-0.19","109","wmvh3vzw","low"
"2","1","free","220","30","34","green-78","green","1652","sampling-task","28","418321","0.0-5.0-0.20-0.20","109","wmvh3vzw","low"
"2","2","free","220","30","38","green-78","green","510","sampling-task","29","420113","0.0-5.0-0.21-0.21","109","wmvh3vzw","low"
"2","3","free","220","30","58","green-78","green","383","sampling-task","30","421321","0.0-5.0-0.22-0.22","109","wmvh3vzw","low"
"2","4","free","220","30","30","green-78","green","431","sampling-task","31","422601","0.0-5.0-0.23-0.23","109","wmvh3vzw","low"
"2","5","free","220","30","30","green-78","green","367","sampling-task","32","423937","0.0-5.0-0.24-0.24","109","wmvh3vzw","low"
"2","6","free","220","30","41","green-78","green","431","sampling-task","33","425217","0.0-5.0-0.25-0.25","109","wmvh3vzw","low"
"2","7","free","220","30","42","green-78","green","407","sampling-task","34","426519","0.0-5.0-0.26-0.26","109","wmvh3vzw","low"
"2","8","free","220","30","37","green-78","green","366","sampling-task","35","427783","0.0-5.0-0.27-0.27","109","wmvh3vzw","low"
"2","9","free","220","30","41","green-78","green","342","sampling-task","36","428999","0.0-5.0-0.28-0.28","109","wmvh3vzw","low"
"2","10","free","220","30","49","green-78","green","382","sampling-task","37","430271","0.0-5.0-0.29-0.29","109","wmvh3vzw","low"
"2","11","free","220","30","15","green-78","green","383","sampling-task","38","431511","0.0-5.0-0.30-0.30","109","wmvh3vzw","low"
"2","12","free","220","30","-4","green-78","green","342","sampling-task","39","432767","0.0-5.0-0.31-0.31","109","wmvh3vzw","low"
"2","13","free","220","30","30","green-78","green","367","sampling-task","40","434055","0.0-5.0-0.32-0.32","109","wmvh3vzw","low"
"2","14","free","220","30","40","green-78","green","374","sampling-task","41","435312","0.0-5.0-0.33-0.33","109","wmvh3vzw","low"
"2","15","free","220","30","21","green-78","green","358","sampling-task","42","436543","0.0-5.0-0.34-0.34","109","wmvh3vzw","low"
"2","16","free","220","30","48","green-78","green","358","sampling-task","43","437768","0.0-5.0-0.35-0.35","109","wmvh3vzw","low"
"2","17","free","220","30","57","green-78","green","334","sampling-task","44","438951","0.0-5.0-0.36-0.36","109","wmvh3vzw","low"
"2","18","free","220","30","13","green-78","green","286","sampling-task","45","440095","0.0-5.0-0.37-0.37","109","wmvh3vzw","low"
"2","19","free","220","30","17","green-78","green","326","sampling-task","46","441311","0.0-5.0-0.38-0.38","109","wmvh3vzw","low"
"2","20","free","220","30","11","green-78","green","278","sampling-task","47","442471","0.0-5.0-0.39-0.39","109","wmvh3vzw","low"
"2","21","free","220","30","13","green-78","green","301","sampling-task","48","443639","0.0-5.0-0.40-0.40","109","wmvh3vzw","low"
"2","22","free","220","30","53","green-78","green","286","sampling-task","49","444791","0.0-5.0-0.41-0.41","109","wmvh3vzw","low"
"2","23","free","220","30","38","green-78","green","294","sampling-task","50","445935","0.0-5.0-0.42-0.42","109","wmvh3vzw","low"
"2","24","free","220","30","52","green-78","green","334","sampling-task","51","447151","0.0-5.0-0.43-0.43","109","wmvh3vzw","low"
"2","25","free","220","30","73","green-78","green","310","sampling-task","52","449135","0.0-5.0-0.44-0.44","109","wmvh3vzw","low"
"2","26","free","220","30","69","green-78","green","486","sampling-task","53","450487","0.0-5.0-0.45-0.45","109","wmvh3vzw","low"
"2","27","free","220","30","24","green-78","green","334","sampling-task","54","451671","0.0-5.0-0.46-0.46","109","wmvh3vzw","low"
"2","28","free","220","30","5","green-78","green","318","sampling-task","55","452823","0.0-5.0-0.47-0.47","109","wmvh3vzw","low"
"2","29","free","220","30","51","green-78","green","246","sampling-task","56","453911","0.0-5.0-0.48-0.48","109","wmvh3vzw","low"
"2","30","free","220","30","20","green-78","green","278","sampling-task","57","455040","0.0-5.0-0.49-0.49","109","wmvh3vzw","low"
"2","31","free","220","30","22","green-78","green","326","sampling-task","58","456231","0.0-5.0-0.50-0.50","109","wmvh3vzw","low"
"2","32","free","220","30","30","green-78","green","294","sampling-task","59","457400","0.0-5.0-0.51-0.51","109","wmvh3vzw","low"
"2","33","free","220","30","17","green-78","green","1310","sampling-task","60","459864","0.0-5.0-0.52-0.52","109","wmvh3vzw","low"
"3","1","fixed","10","18","44","yellow-196","yellow","2125","sampling-task","63","495414","0.0-5.0-0.53-0.53","109","wmvh3vzw","low"
"3","2","fixed","10","18","9","yellow-196","yellow","494","sampling-task","64","496758","0.0-5.0-0.54-0.54","109","wmvh3vzw","low"
"3","3","fixed","10","18","21","yellow-196","yellow","382","sampling-task","65","498046","0.0-5.0-0.55-0.55","109","wmvh3vzw","low"
"3","4","fixed","10","18","5","yellow-196","yellow","598","sampling-task","66","500094","0.0-5.0-0.56-0.56","109","wmvh3vzw","low"
"3","5","fixed","10","18","18","yellow-196","yellow","462","sampling-task","67","501501","0.0-5.0-0.57-0.57","109","wmvh3vzw","low"
"3","6","fixed","10","18","22","yellow-196","yellow","622","sampling-task","68","503037","0.0-5.0-0.58-0.58","109","wmvh3vzw","low"
"3","7","fixed","10","18","26","yellow-196","yellow","582","sampling-task","69","504830","0.0-5.0-0.59-0.59","109","wmvh3vzw","low"
"3","8","fixed","10","18","-8","yellow-196","yellow","558","sampling-task","70","506262","0.0-5.0-0.60-0.60","109","wmvh3vzw","low"
"3","9","fixed","10","18","10","yellow-196","yellow","502","sampling-task","71","507709","0.0-5.0-0.61-0.61","109","wmvh3vzw","low"
"3","10","fixed","10","18","4","yellow-196","yellow","694","sampling-task","72","509302","0.0-5.0-0.62-0.62","109","wmvh3vzw","low"
"4","1","free","220","50","88","red-49","red","1020","sampling-task","75","554188","0.0-5.0-0.63-0.63","109","wmvh3vzw","low"
"4","2","free","220","50","81","red-49","red","420","sampling-task","76","555484","0.0-5.0-0.64-0.64","109","wmvh3vzw","low"
"4","3","free","220","50","60","red-49","red","302","sampling-task","77","556620","0.0-5.0-0.65-0.65","109","wmvh3vzw","low"
"4","4","free","220","50","46","red-49","red","342","sampling-task","78","557796","0.0-5.0-0.66-0.66","109","wmvh3vzw","low"
"4","5","free","220","50","8","red-49","red","382","sampling-task","79","559012","0.0-5.0-0.67-0.67","109","wmvh3vzw","low"
"4","6","free","220","50","46","red-49","red","351","sampling-task","80","560388","0.0-5.0-0.68-0.68","109","wmvh3vzw","low"
"4","7","free","220","50","67","red-49","red","397","sampling-task","81","561604","0.0-5.0-0.69-0.69","109","wmvh3vzw","low"
"4","8","free","220","50","70","red-49","red","367","sampling-task","82","562828","0.0-5.0-0.70-0.70","109","wmvh3vzw","low"
"4","9","free","220","50","88","red-49","red","358","sampling-task","83","563996","0.0-5.0-0.71-0.71","109","wmvh3vzw","low"
"4","10","free","220","50","63","red-49","red","326","sampling-task","84","565148","0.0-5.0-0.72-0.72","109","wmvh3vzw","low"
"4","11","free","220","50","79","red-49","red","309","sampling-task","85","566372","0.0-5.0-0.73-0.73","109","wmvh3vzw","low"
"4","12","free","220","50","52","red-49","red","374","sampling-task","86","567572","0.0-5.0-0.74-0.74","109","wmvh3vzw","low"
"4","13","free","220","50","19","red-49","red","318","sampling-task","87","568724","0.0-5.0-0.75-0.75","109","wmvh3vzw","low"
"4","14","free","220","50","41","red-49","red","293","sampling-task","88","569844","0.0-5.0-0.76-0.76","109","wmvh3vzw","low"
"4","15","free","220","50","34","red-49","red","302","sampling-task","89","571004","0.0-5.0-0.77-0.77","109","wmvh3vzw","low"
"4","16","free","220","50","21","red-49","red","341","sampling-task","90","572220","0.0-5.0-0.78-0.78","109","wmvh3vzw","low"
"4","17","free","220","50","73","red-49","red","294","sampling-task","91","573356","0.0-5.0-0.79-0.79","109","wmvh3vzw","low"
"4","18","free","220","50","111","red-49","red","310","sampling-task","92","574500","0.0-5.0-0.80-0.80","109","wmvh3vzw","low"
"4","19","free","220","50","30","red-49","red","303","sampling-task","93","575644","0.0-5.0-0.81-0.81","109","wmvh3vzw","low"
"4","20","free","220","50","18","red-49","red","301","sampling-task","94","576724","0.0-5.0-0.82-0.82","109","wmvh3vzw","low"
"4","21","free","220","50","64","red-49","red","382","sampling-task","95","579380","0.0-5.0-0.83-0.83","109","wmvh3vzw","low"
"4","22","free","220","50","26","red-49","red","477","sampling-task","96","580668","0.0-5.0-0.84-0.84","109","wmvh3vzw","low"
"4","23","free","220","50","50","red-49","red","318","sampling-task","97","581748","0.0-5.0-0.85-0.85","109","wmvh3vzw","low"
"4","24","free","220","50","22","red-49","red","317","sampling-task","98","582916","0.0-5.0-0.86-0.86","109","wmvh3vzw","low"
"4","25","free","220","50","16","red-49","red","309","sampling-task","99","584068","0.0-5.0-0.87-0.87","109","wmvh3vzw","low"
"4","26","free","220","50","57","red-49","red","318","sampling-task","100","585188","0.0-5.0-0.88-0.88","109","wmvh3vzw","low"
"4","27","free","220","50","46","red-49","red","294","sampling-task","101","586364","0.0-5.0-0.89-0.89","109","wmvh3vzw","low"
"4","28","free","220","50","78","red-49","red","301","sampling-task","102","587388","0.0-5.0-0.90-0.90","109","wmvh3vzw","low"
"4","29","free","220","50","50","red-49","red","365","sampling-task","103","588596","0.0-5.0-0.91-0.91","109","wmvh3vzw","low"
"4","30","free","220","50","43","red-49","red","286","sampling-task","104","589676","0.0-5.0-0.92-0.92","109","wmvh3vzw","low"
"4","31","free","220","50","58","red-49","red","293","sampling-task","105","591052","0.0-5.0-0.93-0.93","109","wmvh3vzw","low"
"4","32","free","220","50","76","red-49","red","502","sampling-task","106","592420","0.0-5.0-0.94-0.94","109","wmvh3vzw","low"
"4","33","free","220","50","73","red-49","red","646","sampling-task","107","593972","0.0-5.0-0.95-0.95","109","wmvh3vzw","low"
"4","34","free","220","50","54","red-49","red","502","sampling-task","108","595324","0.0-5.0-0.96-0.96","109","wmvh3vzw","low"
"4","35","free","220","50","41","red-49","red","526","sampling-task","109","597228","0.0-5.0-0.97-0.97","109","wmvh3vzw","low"
"4","36","free","220","50","70","red-49","red","509","sampling-task","110","598596","0.0-5.0-0.98-0.98","109","wmvh3vzw","low"
"4","37","free","220","50","58","red-49","red","654","sampling-task","111","600644","0.0-5.0-0.99-0.99","109","wmvh3vzw","low"
"5","1","fixed","5","96","70","purple-114","purple","1820","sampling-task","114","643513","0.0-5.0-0.100-0.100","109","wmvh3vzw","low"
"5","2","fixed","5","96","83","purple-114","purple","1022","sampling-task","115","645433","0.0-5.0-0.101-0.101","109","wmvh3vzw","low"
"5","3","fixed","5","96","108","purple-114","purple","454","sampling-task","116","646673","0.0-5.0-0.102-0.102","109","wmvh3vzw","low"
"5","4","fixed","5","96","96","purple-114","purple","406","sampling-task","117","647937","0.0-5.0-0.103-0.103","109","wmvh3vzw","low"
"5","5","fixed","5","96","129","purple-114","purple","502","sampling-task","118","649369","0.0-5.0-0.104-0.104","109","wmvh3vzw","low"
"6","1","free","220","113","126","blue-146","blue","1517","sampling-task","121","685688","0.0-5.0-0.105-0.105","109","wmvh3vzw","low"
"6","2","free","220","113","110","blue-146","blue","342","sampling-task","122","687000","0.0-5.0-0.106-0.106","109","wmvh3vzw","low"
"6","3","free","220","113","102","blue-146","blue","373","sampling-task","123","688232","0.0-5.0-0.107-0.107","109","wmvh3vzw","low"
"6","4","free","220","113","147","blue-146","blue","334","sampling-task","124","689416","0.0-5.0-0.108-0.108","109","wmvh3vzw","low"
"6","5","free","220","113","115","blue-146","blue","342","sampling-task","125","690640","0.0-5.0-0.109-0.109","109","wmvh3vzw","low"
"6","6","free","220","113","131","blue-146","blue","342","sampling-task","126","692104","0.0-5.0-0.110-0.110","109","wmvh3vzw","low"
"6","7","free","220","113","107","blue-146","blue","325","sampling-task","127","693288","0.0-5.0-0.111-0.111","109","wmvh3vzw","low"
"6","8","free","220","113","119","blue-146","blue","325","sampling-task","128","694488","0.0-5.0-0.112-0.112","109","wmvh3vzw","low"
"6","9","free","220","113","95","blue-146","blue","359","sampling-task","129","695704","0.0-5.0-0.113-0.113","109","wmvh3vzw","low"
"6","10","free","220","113","152","blue-146","blue","294","sampling-task","130","697016","0.0-5.0-0.114-0.114","109","wmvh3vzw","low"
"6","11","free","220","113","117","blue-146","blue","269","sampling-task","131","698104","0.0-5.0-0.115-0.115","109","wmvh3vzw","low"
"6","12","free","220","113","110","blue-146","blue","309","sampling-task","132","700504","0.0-5.0-0.116-0.116","109","wmvh3vzw","low"
"6","13","free","220","113","109","blue-146","blue","373","sampling-task","133","701768","0.0-5.0-0.117-0.117","109","wmvh3vzw","low"
"6","14","free","220","113","115","blue-146","blue","373","sampling-task","134","703016","0.0-5.0-0.118-0.118","109","wmvh3vzw","low"
"6","15","free","220","113","113","blue-146","blue","310","sampling-task","135","704176","0.0-5.0-0.119-0.119","109","wmvh3vzw","low"
"6","16","free","220","113","133","blue-146","blue","462","sampling-task","136","705512","0.0-5.0-0.120-0.120","109","wmvh3vzw","low"
"6","17","free","220","113","114","blue-146","blue","549","sampling-task","137","707408","0.0-5.0-0.121-0.121","109","wmvh3vzw","low"
