"round_number","sample_number","sampling_type","nSamples","mean","feedback","stimulus","stimulus_colour","rt","trial_type","trial_index","time_elapsed","internal_node_id","participant","randomID","condition"
"1","1","fixed","5","93","112","purple-165","purple","18833","sampling-task","6","403013","0.0-5.0-0.0-0.0","101","ozesv6ym","high"
"1","2","fixed","5","93","61","purple-5","purple","1582","sampling-task","7","407829","0.0-5.0-0.1-0.1","101","ozesv6ym","high"
"1","3","fixed","5","93","147","purple-121","purple","1318","sampling-task","8","413269","0.0-5.0-0.2-0.2","101","ozesv6ym","high"
"1","4","fixed","5","93","97","purple-142","purple","1366","sampling-task","9","416461","0.0-5.0-0.3-0.3","101","ozesv6ym","high"
"1","5","fixed","5","93","91","purple-168","purple","1142","sampling-task","10","421277","0.0-5.0-0.4-0.4","101","ozesv6ym","high"
"2","1","free","220","35","14","blue-132","blue","6053","sampling-task","13","496229","0.0-5.0-0.5-0.5","101","ozesv6ym","high"
"2","2","free","220","35","52","blue-17","blue","1030","sampling-task","14","499701","0.0-5.0-0.6-0.6","101","ozesv6ym","high"
"2","3","free","220","35","40","blue-17","blue","1430","sampling-task","15","504165","0.0-5.0-0.7-0.7","101","ozesv6ym","high"
"2","4","free","220","35","55","blue-220","blue","1222","sampling-task","16","507925","0.0-5.0-0.8-0.8","101","ozesv6ym","high"
"2","5","free","220","35","40","blue-20","blue","1166","sampling-task","17","510988","0.0-5.0-0.9-0.9","101","ozesv6ym","high"
"2","6","free","220","35","32","blue-57","blue","1678","sampling-task","18","515101","0.0-5.0-0.10-0.10","101","ozesv6ym","high"
"2","7","free","220","35","64","blue-153","blue","958","sampling-task","19","517949","0.0-5.0-0.11-0.11","101","ozesv6ym","high"
"2","8","free","220","35","11","blue-9","blue","1086","sampling-task","20","521173","0.0-5.0-0.12-0.12","101","ozesv6ym","high"
"2","9","free","220","35","48","blue-201","blue","1597","sampling-task","21","525211","0.0-5.0-0.13-0.13","101","ozesv6ym","high"
"2","10","free","220","35","62","blue-131","blue","1094","sampling-task","22","527947","0.0-5.0-0.14-0.14","101","ozesv6ym","high"
"2","11","free","220","35","12","blue-176","blue","1639","sampling-task","23","531283","0.0-5.0-0.15-0.15","101","ozesv6ym","high"
"2","12","free","220","35","58","blue-52","blue","742","sampling-task","24","533907","0.0-5.0-0.16-0.16","101","ozesv6ym","high"
"2","13","free","220","35","74","blue-73","blue","759","sampling-task","25","536267","0.0-5.0-0.17-0.17","101","ozesv6ym","high"
"2","14","free","220","35","51","blue-172","blue","878","sampling-task","26","538899","0.0-5.0-0.18-0.18","101","ozesv6ym","high"
"2","15","free","220","35","71","blue-205","blue","1079","sampling-task","27","541819","0.0-5.0-0.19-0.19","101","ozesv6ym","high"
"2","16","free","220","35","26","blue-105","blue","1599","sampling-task","28","545091","0.0-5.0-0.20-0.20","101","ozesv6ym","high"
"2","17","free","220","35","16","blue-41","blue","1750","sampling-task","29","549547","0.0-5.0-0.21-0.21","101","ozesv6ym","high"
"2","18","free","220","35","52","blue-59","blue","1086","sampling-task","30","553043","0.0-5.0-0.22-0.22","101","ozesv6ym","high"
"2","19","free","220","35","9","blue-213","blue","999","sampling-task","31","555587","0.0-5.0-0.23-0.23","101","ozesv6ym","high"
"2","20","free","220","35","52","blue-196","blue","935","sampling-task","32","558555","0.0-5.0-0.24-0.24","101","ozesv6ym","high"
"2","21","free","220","35","47","blue-86","blue","1006","sampling-task","33","561259","0.0-5.0-0.25-0.25","101","ozesv6ym","high"
"2","22","free","220","35","29","blue-113","blue","959","sampling-task","34","564683","0.0-5.0-0.26-0.26","101","ozesv6ym","high"
"2","23","free","220","35","64","blue-116","blue","990","sampling-task","35","567547","0.0-5.0-0.27-0.27","101","ozesv6ym","high"
"2","24","free","220","35","83","blue-109","blue","943","sampling-task","36","570747","0.0-5.0-0.28-0.28","101","ozesv6ym","high"
"2","25","free","220","35","7","blue-53","blue","1399","sampling-task","37","573683","0.0-5.0-0.29-0.29","101","ozesv6ym","high"
"2","26","free","220","35","26","blue-63","blue","639","sampling-task","38","575827","0.0-5.0-0.30-0.30","101","ozesv6ym","high"
"2","27","free","220","35","-16","blue-96","blue","623","sampling-task","39","579787","0.0-5.0-0.31-0.31","101","ozesv6ym","high"
"3","1","fixed","10","50","43","yellow-69","yellow","12676","sampling-task","42","640291","0.0-5.0-0.32-0.32","101","ozesv6ym","high"
"3","2","fixed","10","50","51","yellow-172","yellow","3342","sampling-task","43","645130","0.0-5.0-0.33-0.33","101","ozesv6ym","high"
"3","3","fixed","10","50","9","yellow-93","yellow","878","sampling-task","44","647666","0.0-5.0-0.34-0.34","101","ozesv6ym","high"
"3","4","fixed","10","50","84","yellow-214","yellow","886","sampling-task","45","650130","0.0-5.0-0.35-0.35","101","ozesv6ym","high"
"3","5","fixed","10","50","52","yellow-79","yellow","997","sampling-task","46","653098","0.0-5.0-0.36-0.36","101","ozesv6ym","high"
"3","6","fixed","10","50","23","yellow-59","yellow","734","sampling-task","47","657018","0.0-5.0-0.37-0.37","101","ozesv6ym","high"
"3","7","fixed","10","50","62","yellow-163","yellow","893","sampling-task","48","659810","0.0-5.0-0.38-0.38","101","ozesv6ym","high"
"3","8","fixed","10","50","15","yellow-173","yellow","798","sampling-task","49","662282","0.0-5.0-0.39-0.39","101","ozesv6ym","high"
"3","9","fixed","10","50","32","yellow-27","yellow","1014","sampling-task","50","667706","0.0-5.0-0.40-0.40","101","ozesv6ym","high"
"3","10","fixed","10","50","27","yellow-211","yellow","1150","sampling-task","51","672074","0.0-5.0-0.41-0.41","101","ozesv6ym","high"
"4","1","free","220","71","76","green-157","green","5308","sampling-task","54","711441","0.0-5.0-0.42-0.42","101","ozesv6ym","high"
"4","2","free","220","71","85","green-167","green","854","sampling-task","55","713633","0.0-5.0-0.43-0.43","101","ozesv6ym","high"
"4","3","free","220","71","94","green-193","green","702","sampling-task","56","715745","0.0-5.0-0.44-0.44","101","ozesv6ym","high"
"4","4","free","220","71","53","green-120","green","614","sampling-task","57","717834","0.0-5.0-0.45-0.45","101","ozesv6ym","high"
"4","5","free","220","71","77","green-166","green","717","sampling-task","58","720065","0.0-5.0-0.46-0.46","101","ozesv6ym","high"
"4","6","free","220","71","84","green-161","green","694","sampling-task","59","721921","0.0-5.0-0.47-0.47","101","ozesv6ym","high"
"4","7","free","220","71","60","green-210","green","726","sampling-task","60","724153","0.0-5.0-0.48-0.48","101","ozesv6ym","high"
"5","1","fixed","20","14","18","orange-95","orange","4613","sampling-task","63","778328","0.0-5.0-0.49-0.49","101","ozesv6ym","high"
"5","2","fixed","20","14","-19","orange-161","orange","959","sampling-task","64","780776","0.0-5.0-0.50-0.50","101","ozesv6ym","high"
"5","3","fixed","20","14","25","orange-4","orange","823","sampling-task","65","783248","0.0-5.0-0.51-0.51","101","ozesv6ym","high"
"5","4","fixed","20","14","39","orange-190","orange","870","sampling-task","66","786168","0.0-5.0-0.52-0.52","101","ozesv6ym","high"
"5","5","fixed","20","14","19","orange-109","orange","1055","sampling-task","67","788776","0.0-5.0-0.53-0.53","101","ozesv6ym","high"
"5","6","fixed","20","14","13","orange-163","orange","1263","sampling-task","68","791416","0.0-5.0-0.54-0.54","101","ozesv6ym","high"
"5","7","fixed","20","14","-5","orange-217","orange","959","sampling-task","69","793824","0.0-5.0-0.55-0.55","101","ozesv6ym","high"
"5","8","fixed","20","14","-6","orange-150","orange","870","sampling-task","70","796296","0.0-5.0-0.56-0.56","101","ozesv6ym","high"
"5","9","fixed","20","14","31","orange-58","orange","718","sampling-task","71","798424","0.0-5.0-0.57-0.57","101","ozesv6ym","high"
"5","10","fixed","20","14","4","orange-216","orange","727","sampling-task","72","800600","0.0-5.0-0.58-0.58","101","ozesv6ym","high"
"5","11","fixed","20","14","1","orange-123","orange","679","sampling-task","73","802824","0.0-5.0-0.59-0.59","101","ozesv6ym","high"
"5","12","fixed","20","14","-26","orange-121","orange","703","sampling-task","74","804808","0.0-5.0-0.60-0.60","101","ozesv6ym","high"
"5","13","fixed","20","14","-14","orange-51","orange","774","sampling-task","75","807024","0.0-5.0-0.61-0.61","101","ozesv6ym","high"
"5","14","fixed","20","14","21","orange-134","orange","718","sampling-task","76","809216","0.0-5.0-0.62-0.62","101","ozesv6ym","high"
"5","15","fixed","20","14","-20","orange-20","orange","799","sampling-task","77","811328","0.0-5.0-0.63-0.63","101","ozesv6ym","high"
"5","16","fixed","20","14","9","orange-55","orange","798","sampling-task","78","813712","0.0-5.0-0.64-0.64","101","ozesv6ym","high"
"5","17","fixed","20","14","12","orange-214","orange","783","sampling-task","79","815984","0.0-5.0-0.65-0.65","101","ozesv6ym","high"
"5","18","fixed","20","14","20","orange-200","orange","662","sampling-task","80","818080","0.0-5.0-0.66-0.66","101","ozesv6ym","high"
"5","19","fixed","20","14","-3","orange-87","orange","734","sampling-task","81","820144","0.0-5.0-0.67-0.67","101","ozesv6ym","high"
"5","20","fixed","20","14","33","orange-76","orange","870","sampling-task","82","822600","0.0-5.0-0.68-0.68","101","ozesv6ym","high"
"6","1","free","220","115","108","red-127","red","7901","sampling-task","85","855991","0.0-5.0-0.69-0.69","101","ozesv6ym","high"
"6","2","free","220","115","117","red-205","red","1038","sampling-task","86","858304","0.0-5.0-0.70-0.70","101","ozesv6ym","high"
"6","3","free","220","115","130","red-119","red","670","sampling-task","87","860127","0.0-5.0-0.71-0.71","101","ozesv6ym","high"
"6","4","free","220","115","128","red-69","red","639","sampling-task","88","862343","0.0-5.0-0.72-0.72","101","ozesv6ym","high"
"6","5","free","220","115","117","red-102","red","799","sampling-task","89","865319","0.0-5.0-0.73-0.73","101","ozesv6ym","high"
"6","6","free","220","115","104","red-36","red","759","sampling-task","90","867519","0.0-5.0-0.74-0.74","101","ozesv6ym","high"
"6","7","free","220","115","124","red-149","red","743","sampling-task","91","869439","0.0-5.0-0.75-0.75","101","ozesv6ym","high"
"6","8","free","220","115","104","red-113","red","630","sampling-task","92","871111","0.0-5.0-0.76-0.76","101","ozesv6ym","high"
"6","9","free","220","115","139","red-187","red","725","sampling-task","93","873007","0.0-5.0-0.77-0.77","101","ozesv6ym","high"
"6","10","free","220","115","83","red-36","red","654","sampling-task","94","874807","0.0-5.0-0.78-0.78","101","ozesv6ym","high"
"6","11","free","220","115","118","red-84","red","655","sampling-task","95","876479","0.0-5.0-0.79-0.79","101","ozesv6ym","high"
"6","12","free","220","115","124","red-100","red","671","sampling-task","96","878367","0.0-5.0-0.80-0.80","101","ozesv6ym","high"
"6","13","free","220","115","123","red-4","red","614","sampling-task","97","880655","0.0-5.0-0.81-0.81","101","ozesv6ym","high"
"6","14","free","220","115","119","red-137","red","518","sampling-task","98","882319","0.0-5.0-0.82-0.82","101","ozesv6ym","high"
"6","15","free","220","115","154","red-81","red","527","sampling-task","99","883911","0.0-5.0-0.83-0.83","101","ozesv6ym","high"
"6","16","free","220","115","136","red-1","red","567","sampling-task","100","885439","0.0-5.0-0.84-0.84","101","ozesv6ym","high"
"6","17","free","220","115","122","red-37","red","591","sampling-task","101","887231","0.0-5.0-0.85-0.85","101","ozesv6ym","high"
"6","18","free","220","115","79","red-207","red","598","sampling-task","102","889086","0.0-5.0-0.86-0.86","101","ozesv6ym","high"
"6","19","free","220","115","120","red-140","red","526","sampling-task","103","890774","0.0-5.0-0.87-0.87","101","ozesv6ym","high"
"6","20","free","220","115","119","red-123","red","654","sampling-task","104","893038","0.0-5.0-0.88-0.88","101","ozesv6ym","high"
"6","21","free","220","115","135","red-99","red","566","sampling-task","105","894566","0.0-5.0-0.89-0.89","101","ozesv6ym","high"
"6","22","free","220","115","109","red-89","red","1038","sampling-task","106","896870","0.0-5.0-0.90-0.90","101","ozesv6ym","high"
"6","23","free","220","115","113","red-177","red","526","sampling-task","107","898694","0.0-5.0-0.91-0.91","101","ozesv6ym","high"
"6","24","free","220","115","119","red-172","red","454","sampling-task","108","900550","0.0-5.0-0.92-0.92","101","ozesv6ym","high"
"6","25","free","220","115","94","red-85","red","534","sampling-task","109","902063","0.0-5.0-0.93-0.93","101","ozesv6ym","high"
"6","26","free","220","115","89","red-15","red","518","sampling-task","110","903622","0.0-5.0-0.94-0.94","101","ozesv6ym","high"
"6","27","free","220","115","88","red-31","red","510","sampling-task","111","905310","0.0-5.0-0.95-0.95","101","ozesv6ym","high"
"6","28","free","220","115","102","red-108","red","446","sampling-task","112","907022","0.0-5.0-0.96-0.96","101","ozesv6ym","high"
"6","29","free","220","115","121","red-166","red","478","sampling-task","113","908630","0.0-5.0-0.97-0.97","101","ozesv6ym","high"
"6","30","free","220","115","115","red-15","red","518","sampling-task","114","910142","0.0-5.0-0.98-0.98","101","ozesv6ym","high"
"6","31","free","220","115","110","red-97","red","478","sampling-task","115","911686","0.0-5.0-0.99-0.99","101","ozesv6ym","high"
"6","32","free","220","115","94","red-151","red","446","sampling-task","116","913262","0.0-5.0-0.100-0.100","101","ozesv6ym","high"
"6","33","free","220","115","113","red-186","red","470","sampling-task","117","914670","0.0-5.0-0.101-0.101","101","ozesv6ym","high"
"6","34","free","220","115","117","red-146","red","462","sampling-task","118","916262","0.0-5.0-0.102-0.102","101","ozesv6ym","high"
"6","35","free","220","115","120","red-21","red","462","sampling-task","119","917719","0.0-5.0-0.103-0.103","101","ozesv6ym","high"
"6","36","free","220","115","116","red-83","red","422","sampling-task","120","920350","0.0-5.0-0.104-0.104","101","ozesv6ym","high"
"6","37","free","220","115","126","red-189","red","582","sampling-task","121","922270","0.0-5.0-0.105-0.105","101","ozesv6ym","high"
"6","38","free","220","115","123","red-188","red","631","sampling-task","122","925478","0.0-5.0-0.106-0.106","101","ozesv6ym","high"
"6","39","free","220","115","96","red-104","red","582","sampling-task","123","927030","0.0-5.0-0.107-0.107","101","ozesv6ym","high"
"6","40","free","220","115","115","red-53","red","550","sampling-task","124","928526","0.0-5.0-0.108-0.108","101","ozesv6ym","high"
"6","41","free","220","115","103","red-26","red","510","sampling-task","125","930158","0.0-5.0-0.109-0.109","101","ozesv6ym","high"
"6","42","free","220","115","149","red-210","red","502","sampling-task","126","932166","0.0-5.0-0.110-0.110","101","ozesv6ym","high"
"6","43","free","220","115","139","red-83","red","830","sampling-task","127","935662","0.0-5.0-0.111-0.111","101","ozesv6ym","high"
