"round_number","sample_number","sampling_type","nSamples","mean","feedback","stimulus","stimulus_colour","rt","trial_type","trial_index","time_elapsed","internal_node_id","participant","randomID","condition"
"1","1","fixed","20","111","117","green-45","green","8711","sampling-task","6","536433","0.0-5.0-0.0-0.0","94","5q73zodr","high"
"1","2","fixed","20","111","87","green-215","green","2219","sampling-task","7","540942","0.0-5.0-0.1-0.1","94","5q73zodr","high"
"1","3","fixed","20","111","125","green-94","green","2198","sampling-task","8","545902","0.0-5.0-0.2-0.2","94","5q73zodr","high"
"1","4","fixed","20","111","97","green-195","green","1318","sampling-task","9","549166","0.0-5.0-0.3-0.3","94","5q73zodr","high"
"1","5","fixed","20","111","111","green-200","green","1270","sampling-task","10","552310","0.0-5.0-0.4-0.4","94","5q73zodr","high"
"1","6","fixed","20","111","105","green-76","green","942","sampling-task","11","554983","0.0-5.0-0.5-0.5","94","5q73zodr","high"
"1","7","fixed","20","111","127","green-44","green","1013","sampling-task","12","560574","0.0-5.0-0.6-0.6","94","5q73zodr","high"
"1","8","fixed","20","111","75","green-10","green","814","sampling-task","13","563086","0.0-5.0-0.7-0.7","94","5q73zodr","high"
"1","9","fixed","20","111","99","green-63","green","1006","sampling-task","14","565982","0.0-5.0-0.8-0.8","94","5q73zodr","high"
"1","10","fixed","20","111","100","green-41","green","902","sampling-task","15","569198","0.0-5.0-0.9-0.9","94","5q73zodr","high"
"1","11","fixed","20","111","111","green-216","green","958","sampling-task","16","572110","0.0-5.0-0.10-0.10","94","5q73zodr","high"
"1","12","fixed","20","111","133","green-208","green","1718","sampling-task","17","576598","0.0-5.0-0.11-0.11","94","5q73zodr","high"
"1","13","fixed","20","111","132","green-57","green","982","sampling-task","18","579710","0.0-5.0-0.12-0.12","94","5q73zodr","high"
"1","14","fixed","20","111","126","green-142","green","942","sampling-task","19","582782","0.0-5.0-0.13-0.13","94","5q73zodr","high"
"1","15","fixed","20","111","129","green-25","green","886","sampling-task","20","587030","0.0-5.0-0.14-0.14","94","5q73zodr","high"
"1","16","fixed","20","111","78","green-170","green","1838","sampling-task","21","590278","0.0-5.0-0.15-0.15","94","5q73zodr","high"
"1","17","fixed","20","111","99","green-12","green","1077","sampling-task","22","593054","0.0-5.0-0.16-0.16","94","5q73zodr","high"
"1","18","fixed","20","111","77","green-140","green","1526","sampling-task","23","596654","0.0-5.0-0.17-0.17","94","5q73zodr","high"
"1","19","fixed","20","111","119","green-8","green","12474","sampling-task","24","610923","0.0-5.0-0.18-0.18","94","5q73zodr","high"
"1","20","fixed","20","111","141","green-6","green","1214","sampling-task","25","616419","0.0-5.0-0.19-0.19","94","5q73zodr","high"
"2","1","free","220","71","103","purple-85","purple","16717","sampling-task","28","712144","0.0-5.0-0.20-0.20","94","5q73zodr","high"
"2","2","free","220","71","72","purple-5","purple","862","sampling-task","29","715744","0.0-5.0-0.21-0.21","94","5q73zodr","high"
"2","3","free","220","71","100","purple-171","purple","1263","sampling-task","30","719056","0.0-5.0-0.22-0.22","94","5q73zodr","high"
"2","4","free","220","71","92","purple-207","purple","1278","sampling-task","31","721926","0.0-5.0-0.23-0.23","94","5q73zodr","high"
"2","5","free","220","71","47","purple-178","purple","990","sampling-task","32","724222","0.0-5.0-0.24-0.24","94","5q73zodr","high"
"2","6","free","220","71","44","purple-137","purple","654","sampling-task","33","726054","0.0-5.0-0.25-0.25","94","5q73zodr","high"
"2","7","free","220","71","64","purple-219","purple","830","sampling-task","34","728222","0.0-5.0-0.26-0.26","94","5q73zodr","high"
"2","8","free","220","71","90","purple-114","purple","1078","sampling-task","35","730974","0.0-5.0-0.27-0.27","94","5q73zodr","high"
"2","9","free","220","71","67","purple-144","purple","1022","sampling-task","36","733686","0.0-5.0-0.28-0.28","94","5q73zodr","high"
"2","10","free","220","71","35","purple-80","purple","822","sampling-task","37","736222","0.0-5.0-0.29-0.29","94","5q73zodr","high"
"2","11","free","220","71","63","purple-87","purple","702","sampling-task","38","738606","0.0-5.0-0.30-0.30","94","5q73zodr","high"
"2","12","free","220","71","58","purple-164","purple","758","sampling-task","39","741422","0.0-5.0-0.31-0.31","94","5q73zodr","high"
"2","13","free","220","71","92","purple-95","purple","710","sampling-task","40","745142","0.0-5.0-0.32-0.32","94","5q73zodr","high"
"2","14","free","220","71","108","purple-174","purple","1622","sampling-task","41","748790","0.0-5.0-0.33-0.33","94","5q73zodr","high"
"2","15","free","220","71","107","purple-70","purple","958","sampling-task","42","751406","0.0-5.0-0.34-0.34","94","5q73zodr","high"
"2","16","free","220","71","76","purple-148","purple","910","sampling-task","43","753678","0.0-5.0-0.35-0.35","94","5q73zodr","high"
"2","17","free","220","71","65","purple-61","purple","798","sampling-task","44","755806","0.0-5.0-0.36-0.36","94","5q73zodr","high"
"2","18","free","220","71","86","purple-121","purple","774","sampling-task","45","758070","0.0-5.0-0.37-0.37","94","5q73zodr","high"
"2","19","free","220","71","63","purple-104","purple","766","sampling-task","46","760270","0.0-5.0-0.38-0.38","94","5q73zodr","high"
"2","20","free","220","71","64","purple-170","purple","686","sampling-task","47","762366","0.0-5.0-0.39-0.39","94","5q73zodr","high"
"2","21","free","220","71","64","purple-126","purple","613","sampling-task","48","764334","0.0-5.0-0.40-0.40","94","5q73zodr","high"
"2","22","free","220","71","75","purple-113","purple","734","sampling-task","49","766318","0.0-5.0-0.41-0.41","94","5q73zodr","high"
"2","23","free","220","71","102","purple-115","purple","646","sampling-task","50","768782","0.0-5.0-0.42-0.42","94","5q73zodr","high"
"2","24","free","220","71","70","purple-91","purple","822","sampling-task","51","771006","0.0-5.0-0.43-0.43","94","5q73zodr","high"
"2","25","free","220","71","44","purple-164","purple","670","sampling-task","52","772942","0.0-5.0-0.44-0.44","94","5q73zodr","high"
"2","26","free","220","71","79","purple-180","purple","638","sampling-task","53","774846","0.0-5.0-0.45-0.45","94","5q73zodr","high"
"2","27","free","220","71","66","purple-145","purple","686","sampling-task","54","776790","0.0-5.0-0.46-0.46","94","5q73zodr","high"
"2","28","free","220","71","77","purple-109","purple","614","sampling-task","55","778566","0.0-5.0-0.47-0.47","94","5q73zodr","high"
"2","29","free","220","71","76","purple-19","purple","614","sampling-task","56","780374","0.0-5.0-0.48-0.48","94","5q73zodr","high"
"2","30","free","220","71","46","purple-132","purple","590","sampling-task","57","782251","0.0-5.0-0.49-0.49","94","5q73zodr","high"
"2","31","free","220","71","65","purple-19","purple","574","sampling-task","58","784747","0.0-5.0-0.50-0.50","94","5q73zodr","high"
"2","32","free","220","71","88","purple-56","purple","454","sampling-task","59","786771","0.0-5.0-0.51-0.51","94","5q73zodr","high"
"2","33","free","220","71","123","purple-202","purple","630","sampling-task","60","789787","0.0-5.0-0.52-0.52","94","5q73zodr","high"
"2","34","free","220","71","94","purple-151","purple","903","sampling-task","61","791923","0.0-5.0-0.53-0.53","94","5q73zodr","high"
"2","35","free","220","71","85","purple-76","purple","638","sampling-task","62","793579","0.0-5.0-0.54-0.54","94","5q73zodr","high"
"2","36","free","220","71","80","purple-98","purple","590","sampling-task","63","795603","0.0-5.0-0.55-0.55","94","5q73zodr","high"
"3","1","fixed","10","38","61","red-84","red","5666","sampling-task","66","846072","0.0-5.0-0.56-0.56","94","5q73zodr","high"
"3","2","fixed","10","38","30","red-176","red","2782","sampling-task","67","850297","0.0-5.0-0.57-0.57","94","5q73zodr","high"
"3","3","fixed","10","38","44","red-119","red","798","sampling-task","68","852337","0.0-5.0-0.58-0.58","94","5q73zodr","high"
"3","4","fixed","10","38","41","red-128","red","942","sampling-task","69","855089","0.0-5.0-0.59-0.59","94","5q73zodr","high"
"3","5","fixed","10","38","52","red-203","red","1118","sampling-task","70","858313","0.0-5.0-0.60-0.60","94","5q73zodr","high"
"3","6","fixed","10","38","30","red-102","red","1478","sampling-task","71","863584","0.0-5.0-0.61-0.61","94","5q73zodr","high"
"3","7","fixed","10","38","23","red-65","red","750","sampling-task","72","865417","0.0-5.0-0.62-0.62","94","5q73zodr","high"
"3","8","fixed","10","38","30","red-187","red","662","sampling-task","73","867337","0.0-5.0-0.63-0.63","94","5q73zodr","high"
"3","9","fixed","10","38","29","red-139","red","638","sampling-task","74","869681","0.0-5.0-0.64-0.64","94","5q73zodr","high"
"3","10","fixed","10","38","12","red-90","red","854","sampling-task","75","871953","0.0-5.0-0.65-0.65","94","5q73zodr","high"
"4","1","free","220","19","-15","blue-1","blue","3548","sampling-task","78","913158","0.0-5.0-0.66-0.66","94","5q73zodr","high"
"4","2","free","220","19","16","blue-76","blue","743","sampling-task","79","915726","0.0-5.0-0.67-0.67","94","5q73zodr","high"
"4","3","free","220","19","43","blue-69","blue","814","sampling-task","80","918726","0.0-5.0-0.68-0.68","94","5q73zodr","high"
"4","4","free","220","19","5","blue-211","blue","766","sampling-task","81","920638","0.0-5.0-0.69-0.69","94","5q73zodr","high"
"4","5","free","220","19","20","blue-69","blue","798","sampling-task","82","922910","0.0-5.0-0.70-0.70","94","5q73zodr","high"
"4","6","free","220","19","34","blue-219","blue","694","sampling-task","83","925582","0.0-5.0-0.71-0.71","94","5q73zodr","high"
"4","7","free","220","19","22","blue-89","blue","701","sampling-task","84","928294","0.0-5.0-0.72-0.72","94","5q73zodr","high"
"4","8","free","220","19","38","blue-209","blue","678","sampling-task","85","930878","0.0-5.0-0.73-0.73","94","5q73zodr","high"
"4","9","free","220","19","50","blue-109","blue","590","sampling-task","86","933838","0.0-5.0-0.74-0.74","94","5q73zodr","high"
"4","10","free","220","19","8","blue-170","blue","630","sampling-task","87","935582","0.0-5.0-0.75-0.75","94","5q73zodr","high"
"4","11","free","220","19","34","blue-184","blue","550","sampling-task","88","937550","0.0-5.0-0.76-0.76","94","5q73zodr","high"
"4","12","free","220","19","-20","blue-138","blue","646","sampling-task","89","939614","0.0-5.0-0.77-0.77","94","5q73zodr","high"
"4","13","free","220","19","22","blue-178","blue","614","sampling-task","90","941550","0.0-5.0-0.78-0.78","94","5q73zodr","high"
"4","14","free","220","19","3","blue-199","blue","580","sampling-task","91","943286","0.0-5.0-0.79-0.79","94","5q73zodr","high"
"4","15","free","220","19","22","blue-145","blue","550","sampling-task","92","947806","0.0-5.0-0.80-0.80","94","5q73zodr","high"
"4","16","free","220","19","32","blue-197","blue","430","sampling-task","93","949390","0.0-5.0-0.81-0.81","94","5q73zodr","high"
"4","17","free","220","19","22","blue-204","blue","622","sampling-task","94","951294","0.0-5.0-0.82-0.82","94","5q73zodr","high"
"4","18","free","220","19","-10","blue-66","blue","581","sampling-task","95","952950","0.0-5.0-0.83-0.83","94","5q73zodr","high"
"4","19","free","220","19","11","blue-131","blue","510","sampling-task","96","954470","0.0-5.0-0.84-0.84","94","5q73zodr","high"
"4","20","free","220","19","-41","blue-9","blue","678","sampling-task","97","956422","0.0-5.0-0.85-0.85","94","5q73zodr","high"
"4","21","free","220","19","44","blue-127","blue","638","sampling-task","98","960222","0.0-5.0-0.86-0.86","94","5q73zodr","high"
"4","22","free","220","19","3","blue-1","blue","534","sampling-task","99","961902","0.0-5.0-0.87-0.87","94","5q73zodr","high"
"4","23","free","220","19","-1","blue-22","blue","575","sampling-task","100","963539","0.0-5.0-0.88-0.88","94","5q73zodr","high"
"4","24","free","220","19","48","blue-215","blue","550","sampling-task","101","966523","0.0-5.0-0.89-0.89","94","5q73zodr","high"
"4","25","free","220","19","26","blue-26","blue","614","sampling-task","102","968979","0.0-5.0-0.90-0.90","94","5q73zodr","high"
"4","26","free","220","19","7","blue-206","blue","518","sampling-task","103","970819","0.0-5.0-0.91-0.91","94","5q73zodr","high"
"4","27","free","220","19","30","blue-132","blue","598","sampling-task","104","972827","0.0-5.0-0.92-0.92","94","5q73zodr","high"
"4","28","free","220","19","20","blue-205","blue","598","sampling-task","105","974595","0.0-5.0-0.93-0.93","94","5q73zodr","high"
"4","29","free","220","19","22","blue-133","blue","518","sampling-task","106","976004","0.0-5.0-0.94-0.94","94","5q73zodr","high"
"4","30","free","220","19","25","blue-64","blue","518","sampling-task","107","977619","0.0-5.0-0.95-0.95","94","5q73zodr","high"
"4","31","free","220","19","-10","blue-111","blue","470","sampling-task","108","979900","0.0-5.0-0.96-0.96","94","5q73zodr","high"
"4","32","free","220","19","36","blue-216","blue","486","sampling-task","109","981779","0.0-5.0-0.97-0.97","94","5q73zodr","high"
"5","1","fixed","5","96","67","orange-207","orange","6188","sampling-task","112","1064505","0.0-5.0-0.98-0.98","94","5q73zodr","high"
"5","2","fixed","5","96","64","orange-146","orange","725","sampling-task","113","1066689","0.0-5.0-0.99-0.99","94","5q73zodr","high"
"5","3","fixed","5","96","88","orange-172","orange","661","sampling-task","114","1070249","0.0-5.0-0.100-0.100","94","5q73zodr","high"
"5","4","fixed","5","96","106","orange-49","orange","702","sampling-task","115","1073313","0.0-5.0-0.101-0.101","94","5q73zodr","high"
"5","5","fixed","5","96","72","orange-72","orange","757","sampling-task","116","1075521","0.0-5.0-0.102-0.102","94","5q73zodr","high"
"6","1","free","220","55","52","yellow-124","yellow","3205","sampling-task","119","1115902","0.0-5.0-0.103-0.103","94","5q73zodr","high"
"6","2","free","220","55","34","yellow-10","yellow","790","sampling-task","120","1118286","0.0-5.0-0.104-0.104","94","5q73zodr","high"
"6","3","free","220","55","34","yellow-212","yellow","814","sampling-task","121","1120150","0.0-5.0-0.105-0.105","94","5q73zodr","high"
"6","4","free","220","55","82","yellow-102","yellow","1054","sampling-task","122","1123502","0.0-5.0-0.106-0.106","94","5q73zodr","high"
"6","5","free","220","55","68","yellow-195","yellow","686","sampling-task","123","1125206","0.0-5.0-0.107-0.107","94","5q73zodr","high"
"6","6","free","220","55","78","yellow-157","yellow","798","sampling-task","124","1127790","0.0-5.0-0.108-0.108","94","5q73zodr","high"
"6","7","free","220","55","45","yellow-123","yellow","654","sampling-task","125","1129486","0.0-5.0-0.109-0.109","94","5q73zodr","high"
"6","8","free","220","55","32","yellow-39","yellow","1070","sampling-task","126","1131438","0.0-5.0-0.110-0.110","94","5q73zodr","high"
"6","9","free","220","55","34","yellow-67","yellow","646","sampling-task","127","1133158","0.0-5.0-0.111-0.111","94","5q73zodr","high"
"6","10","free","220","55","77","yellow-14","yellow","719","sampling-task","128","1135366","0.0-5.0-0.112-0.112","94","5q73zodr","high"
"6","11","free","220","55","90","yellow-70","yellow","574","sampling-task","129","1137862","0.0-5.0-0.113-0.113","94","5q73zodr","high"
"6","12","free","220","55","58","yellow-58","yellow","550","sampling-task","130","1139414","0.0-5.0-0.114-0.114","94","5q73zodr","high"
"6","13","free","220","55","73","yellow-88","yellow","518","sampling-task","131","1140974","0.0-5.0-0.115-0.115","94","5q73zodr","high"
"6","14","free","220","55","48","yellow-38","yellow","558","sampling-task","132","1142583","0.0-5.0-0.116-0.116","94","5q73zodr","high"
"6","15","free","220","55","44","yellow-54","yellow","486","sampling-task","133","1144094","0.0-5.0-0.117-0.117","94","5q73zodr","high"
"6","16","free","220","55","55","yellow-92","yellow","502","sampling-task","134","1145878","0.0-5.0-0.118-0.118","94","5q73zodr","high"
"6","17","free","220","55","70","yellow-197","yellow","437","sampling-task","135","1147470","0.0-5.0-0.119-0.119","94","5q73zodr","high"
"6","18","free","220","55","38","yellow-149","yellow","462","sampling-task","136","1148958","0.0-5.0-0.120-0.120","94","5q73zodr","high"
"6","19","free","220","55","47","yellow-214","yellow","523","sampling-task","137","1150467","0.0-5.0-0.121-0.121","94","5q73zodr","high"
