"round_number","sample_number","sampling_type","nSamples","mean","feedback","stimulus","stimulus_colour","rt","trial_type","trial_index","time_elapsed","internal_node_id","participant","randomID","condition"
"1","1","fixed","5","117","122","red-63","red","4393","sampling-task","6","1050599","0.0-5.0-0.0-0.0","67","7cbx93al","low"
"1","2","fixed","5","117","113","red-63","red","1134","sampling-task","7","1052790","0.0-5.0-0.1-0.1","67","7cbx93al","low"
"1","3","fixed","5","117","113","red-63","red","511","sampling-task","8","1054358","0.0-5.0-0.2-0.2","67","7cbx93al","low"
"1","4","fixed","5","117","144","red-63","red","471","sampling-task","9","1056390","0.0-5.0-0.3-0.3","67","7cbx93al","low"
"1","5","fixed","5","117","133","red-63","red","670","sampling-task","10","1058078","0.0-5.0-0.4-0.4","67","7cbx93al","low"
"2","1","free","220","11","-4","orange-40","orange","4508","sampling-task","13","1098014","0.0-5.0-0.5-0.5","67","7cbx93al","low"
"2","2","free","220","11","13","orange-40","orange","550","sampling-task","14","1099829","0.0-5.0-0.6-0.6","67","7cbx93al","low"
"2","3","free","220","11","5","orange-40","orange","390","sampling-task","15","1101118","0.0-5.0-0.7-0.7","67","7cbx93al","low"
"2","4","free","220","11","-7","orange-40","orange","478","sampling-task","16","1102574","0.0-5.0-0.8-0.8","67","7cbx93al","low"
"2","5","free","220","11","5","orange-40","orange","702","sampling-task","17","1105645","0.0-5.0-0.9-0.9","67","7cbx93al","low"
"2","6","free","220","11","-16","orange-40","orange","782","sampling-task","18","1109342","0.0-5.0-0.10-0.10","67","7cbx93al","low"
"2","7","free","220","11","8","orange-40","orange","390","sampling-task","19","1111134","0.0-5.0-0.11-0.11","67","7cbx93al","low"
"2","8","free","220","11","41","orange-40","orange","406","sampling-task","20","1112382","0.0-5.0-0.12-0.12","67","7cbx93al","low"
"2","9","free","220","11","1","orange-40","orange","278","sampling-task","21","1113478","0.0-5.0-0.13-0.13","67","7cbx93al","low"
"2","10","free","220","11","58","orange-40","orange","358","sampling-task","22","1114670","0.0-5.0-0.14-0.14","67","7cbx93al","low"
"2","11","free","220","11","5","orange-40","orange","302","sampling-task","23","1115798","0.0-5.0-0.15-0.15","67","7cbx93al","low"
"2","12","free","220","11","9","orange-40","orange","382","sampling-task","24","1117102","0.0-5.0-0.16-0.16","67","7cbx93al","low"
"2","13","free","220","11","-21","orange-40","orange","262","sampling-task","25","1118294","0.0-5.0-0.17-0.17","67","7cbx93al","low"
"2","14","free","220","11","-25","orange-40","orange","269","sampling-task","26","1119374","0.0-5.0-0.18-0.18","67","7cbx93al","low"
"2","15","free","220","11","19","orange-40","orange","254","sampling-task","27","1120534","0.0-5.0-0.19-0.19","67","7cbx93al","low"
"2","16","free","220","11","-2","orange-40","orange","270","sampling-task","28","1122077","0.0-5.0-0.20-0.20","67","7cbx93al","low"
"3","1","fixed","10","90","57","green-10","green","3604","sampling-task","31","1159652","0.0-5.0-0.21-0.21","67","7cbx93al","low"
"3","2","fixed","10","90","104","green-10","green","374","sampling-task","32","1161108","0.0-5.0-0.22-0.22","67","7cbx93al","low"
"3","3","fixed","10","90","103","green-10","green","439","sampling-task","33","1164348","0.0-5.0-0.23-0.23","67","7cbx93al","low"
"3","4","fixed","10","90","74","green-10","green","335","sampling-task","34","1165492","0.0-5.0-0.24-0.24","67","7cbx93al","low"
"3","5","fixed","10","90","86","green-10","green","287","sampling-task","35","1166620","0.0-5.0-0.25-0.25","67","7cbx93al","low"
"3","6","fixed","10","90","74","green-10","green","311","sampling-task","36","1167804","0.0-5.0-0.26-0.26","67","7cbx93al","low"
"3","7","fixed","10","90","80","green-10","green","287","sampling-task","37","1168900","0.0-5.0-0.27-0.27","67","7cbx93al","low"
"3","8","fixed","10","90","88","green-10","green","303","sampling-task","38","1169996","0.0-5.0-0.28-0.28","67","7cbx93al","low"
"3","9","fixed","10","90","73","green-10","green","319","sampling-task","39","1171140","0.0-5.0-0.29-0.29","67","7cbx93al","low"
"3","10","fixed","10","90","89","green-10","green","375","sampling-task","40","1172404","0.0-5.0-0.30-0.30","67","7cbx93al","low"
"4","1","free","220","77","81","purple-96","purple","2492","sampling-task","43","1194051","0.0-5.0-0.31-0.31","67","7cbx93al","low"
"4","2","free","220","77","77","purple-96","purple","382","sampling-task","44","1195204","0.0-5.0-0.32-0.32","67","7cbx93al","low"
"4","3","free","220","77","100","purple-96","purple","350","sampling-task","45","1196316","0.0-5.0-0.33-0.33","67","7cbx93al","low"
"4","4","free","220","77","97","purple-96","purple","262","sampling-task","46","1197268","0.0-5.0-0.34-0.34","67","7cbx93al","low"
"4","5","free","220","77","65","purple-96","purple","254","sampling-task","47","1198212","0.0-5.0-0.35-0.35","67","7cbx93al","low"
"4","6","free","220","77","47","purple-96","purple","253","sampling-task","48","1199124","0.0-5.0-0.36-0.36","67","7cbx93al","low"
"4","7","free","220","77","56","purple-96","purple","286","sampling-task","49","1200420","0.0-5.0-0.37-0.37","67","7cbx93al","low"
"4","8","free","220","77","66","purple-96","purple","230","sampling-task","50","1201460","0.0-5.0-0.38-0.38","67","7cbx93al","low"
"4","9","free","220","77","81","purple-96","purple","246","sampling-task","51","1202476","0.0-5.0-0.39-0.39","67","7cbx93al","low"
"4","10","free","220","77","111","purple-96","purple","254","sampling-task","52","1203452","0.0-5.0-0.40-0.40","67","7cbx93al","low"
"4","11","free","220","77","100","purple-96","purple","286","sampling-task","53","1204524","0.0-5.0-0.41-0.41","67","7cbx93al","low"
"4","12","free","220","77","74","purple-96","purple","245","sampling-task","54","1205548","0.0-5.0-0.42-0.42","67","7cbx93al","low"
"4","13","free","220","77","63","purple-96","purple","278","sampling-task","55","1206636","0.0-5.0-0.43-0.43","67","7cbx93al","low"
"4","14","free","220","77","64","purple-96","purple","262","sampling-task","56","1207596","0.0-5.0-0.44-0.44","67","7cbx93al","low"
"4","15","free","220","77","81","purple-96","purple","302","sampling-task","57","1208612","0.0-5.0-0.45-0.45","67","7cbx93al","low"
"4","16","free","220","77","98","purple-96","purple","278","sampling-task","58","1210428","0.0-5.0-0.46-0.46","67","7cbx93al","low"
"4","17","free","220","77","93","purple-96","purple","230","sampling-task","59","1211420","0.0-5.0-0.47-0.47","67","7cbx93al","low"
"4","18","free","220","77","86","purple-96","purple","261","sampling-task","60","1212580","0.0-5.0-0.48-0.48","67","7cbx93al","low"
"5","1","fixed","20","59","51","yellow-124","yellow","2741","sampling-task","63","1231524","0.0-5.0-0.49-0.49","67","7cbx93al","low"
"5","2","fixed","20","59","55","yellow-124","yellow","430","sampling-task","64","1232956","0.0-5.0-0.50-0.50","67","7cbx93al","low"
"5","3","fixed","20","59","79","yellow-124","yellow","246","sampling-task","65","1234028","0.0-5.0-0.51-0.51","67","7cbx93al","low"
"5","4","fixed","20","59","36","yellow-124","yellow","334","sampling-task","66","1235139","0.0-5.0-0.52-0.52","67","7cbx93al","low"
"5","5","fixed","20","59","85","yellow-124","yellow","294","sampling-task","67","1236196","0.0-5.0-0.53-0.53","67","7cbx93al","low"
"5","6","fixed","20","59","52","yellow-124","yellow","246","sampling-task","68","1237172","0.0-5.0-0.54-0.54","67","7cbx93al","low"
"5","7","fixed","20","59","23","yellow-124","yellow","230","sampling-task","69","1238292","0.0-5.0-0.55-0.55","67","7cbx93al","low"
"5","8","fixed","20","59","50","yellow-124","yellow","286","sampling-task","70","1239724","0.0-5.0-0.56-0.56","67","7cbx93al","low"
"5","9","fixed","20","59","46","yellow-124","yellow","254","sampling-task","71","1240740","0.0-5.0-0.57-0.57","67","7cbx93al","low"
"5","10","fixed","20","59","53","yellow-124","yellow","262","sampling-task","72","1241692","0.0-5.0-0.58-0.58","67","7cbx93al","low"
"5","11","fixed","20","59","56","yellow-124","yellow","270","sampling-task","73","1242652","0.0-5.0-0.59-0.59","67","7cbx93al","low"
"5","12","fixed","20","59","43","yellow-124","yellow","270","sampling-task","74","1243572","0.0-5.0-0.60-0.60","67","7cbx93al","low"
"5","13","fixed","20","59","52","yellow-124","yellow","262","sampling-task","75","1244524","0.0-5.0-0.61-0.61","67","7cbx93al","low"
"5","14","fixed","20","59","74","yellow-124","yellow","254","sampling-task","76","1245900","0.0-5.0-0.62-0.62","67","7cbx93al","low"
"5","15","fixed","20","59","61","yellow-124","yellow","222","sampling-task","77","1246962","0.0-5.0-0.63-0.63","67","7cbx93al","low"
"5","16","fixed","20","59","78","yellow-124","yellow","246","sampling-task","78","1247874","0.0-5.0-0.64-0.64","67","7cbx93al","low"
"5","17","fixed","20","59","54","yellow-124","yellow","262","sampling-task","79","1249658","0.0-5.0-0.65-0.65","67","7cbx93al","low"
"5","18","fixed","20","59","95","yellow-124","yellow","246","sampling-task","80","1250626","0.0-5.0-0.66-0.66","67","7cbx93al","low"
"5","19","fixed","20","59","41","yellow-124","yellow","278","sampling-task","81","1251706","0.0-5.0-0.67-0.67","67","7cbx93al","low"
"5","20","fixed","20","59","51","yellow-124","yellow","262","sampling-task","82","1252762","0.0-5.0-0.68-0.68","67","7cbx93al","low"
"6","1","free","220","39","38","blue-87","blue","1621","sampling-task","85","1276218","0.0-5.0-0.69-0.69","67","7cbx93al","low"
"6","2","free","220","39","21","blue-87","blue","270","sampling-task","86","1277290","0.0-5.0-0.70-0.70","67","7cbx93al","low"
"6","3","free","220","39","45","blue-87","blue","270","sampling-task","87","1278322","0.0-5.0-0.71-0.71","67","7cbx93al","low"
"6","4","free","220","39","54","blue-87","blue","238","sampling-task","88","1279274","0.0-5.0-0.72-0.72","67","7cbx93al","low"
"6","5","free","220","39","7","blue-87","blue","229","sampling-task","89","1280330","0.0-5.0-0.73-0.73","67","7cbx93al","low"
"6","6","free","220","39","31","blue-87","blue","262","sampling-task","90","1281314","0.0-5.0-0.74-0.74","67","7cbx93al","low"
"6","7","free","220","39","64","blue-87","blue","278","sampling-task","91","1282266","0.0-5.0-0.75-0.75","67","7cbx93al","low"
"6","8","free","220","39","28","blue-87","blue","278","sampling-task","92","1283210","0.0-5.0-0.76-0.76","67","7cbx93al","low"
"6","9","free","220","39","-14","blue-87","blue","317","sampling-task","93","1284306","0.0-5.0-0.77-0.77","67","7cbx93al","low"
"6","10","free","220","39","55","blue-87","blue","247","sampling-task","94","1285338","0.0-5.0-0.78-0.78","67","7cbx93al","low"
"6","11","free","220","39","19","blue-87","blue","221","sampling-task","95","1286274","0.0-5.0-0.79-0.79","67","7cbx93al","low"
"6","12","free","220","39","77","blue-87","blue","246","sampling-task","96","1287178","0.0-5.0-0.80-0.80","67","7cbx93al","low"
"6","13","free","220","39","35","blue-87","blue","270","sampling-task","97","1288090","0.0-5.0-0.81-0.81","67","7cbx93al","low"
"6","14","free","220","39","46","blue-87","blue","246","sampling-task","98","1289362","0.0-5.0-0.82-0.82","67","7cbx93al","low"
"6","15","free","220","39","58","blue-87","blue","238","sampling-task","99","1290466","0.0-5.0-0.83-0.83","67","7cbx93al","low"
"6","16","free","220","39","21","blue-87","blue","246","sampling-task","100","1292162","0.0-5.0-0.84-0.84","67","7cbx93al","low"
"6","17","free","220","39","37","blue-87","blue","246","sampling-task","101","1293330","0.0-5.0-0.85-0.85","67","7cbx93al","low"
"6","18","free","220","39","66","blue-87","blue","261","sampling-task","102","1294306","0.0-5.0-0.86-0.86","67","7cbx93al","low"
"6","19","free","220","39","68","blue-87","blue","270","sampling-task","103","1295578","0.0-5.0-0.87-0.87","67","7cbx93al","low"
"6","20","free","220","39","21","blue-87","blue","190","sampling-task","104","1296554","0.0-5.0-0.88-0.88","67","7cbx93al","low"
"6","21","free","220","39","37","blue-87","blue","230","sampling-task","105","1297570","0.0-5.0-0.89-0.89","67","7cbx93al","low"
"6","22","free","220","39","0","blue-87","blue","237","sampling-task","106","1298697","0.0-5.0-0.90-0.90","67","7cbx93al","low"
"6","23","free","220","39","8","blue-87","blue","238","sampling-task","107","1299722","0.0-5.0-0.91-0.91","67","7cbx93al","low"
"6","24","free","220","39","55","blue-87","blue","222","sampling-task","108","1300650","0.0-5.0-0.92-0.92","67","7cbx93al","low"
"6","25","free","220","39","69","blue-87","blue","237","sampling-task","109","1301562","0.0-5.0-0.93-0.93","67","7cbx93al","low"
"6","26","free","220","39","60","blue-87","blue","294","sampling-task","110","1302610","0.0-5.0-0.94-0.94","67","7cbx93al","low"
"6","27","free","220","39","12","blue-87","blue","246","sampling-task","111","1303890","0.0-5.0-0.95-0.95","67","7cbx93al","low"
"6","28","free","220","39","28","blue-87","blue","221","sampling-task","112","1305554","0.0-5.0-0.96-0.96","67","7cbx93al","low"
"6","29","free","220","39","4","blue-87","blue","222","sampling-task","113","1306545","0.0-5.0-0.97-0.97","67","7cbx93al","low"
"6","30","free","220","39","44","blue-87","blue","253","sampling-task","114","1307441","0.0-5.0-0.98-0.98","67","7cbx93al","low"
"6","31","free","220","39","55","blue-87","blue","301","sampling-task","115","1308393","0.0-5.0-0.99-0.99","67","7cbx93al","low"
"6","32","free","220","39","44","blue-87","blue","270","sampling-task","116","1309313","0.0-5.0-0.100-0.100","67","7cbx93al","low"
"6","33","free","220","39","7","blue-87","blue","254","sampling-task","117","1310233","0.0-5.0-0.101-0.101","67","7cbx93al","low"
"6","34","free","220","39","6","blue-87","blue","253","sampling-task","118","1311105","0.0-5.0-0.102-0.102","67","7cbx93al","low"
"6","35","free","220","39","45","blue-87","blue","221","sampling-task","119","1311977","0.0-5.0-0.103-0.103","67","7cbx93al","low"
"6","36","free","220","39","64","blue-87","blue","221","sampling-task","120","1313033","0.0-5.0-0.104-0.104","67","7cbx93al","low"
"6","37","free","220","39","64","blue-87","blue","277","sampling-task","121","1314457","0.0-5.0-0.105-0.105","67","7cbx93al","low"
