"round_number","sample_number","sampling_type","nSamples","mean","feedback","stimulus","stimulus_colour","rt","trial_type","trial_index","time_elapsed","internal_node_id","participant","randomID","condition"
"1","1","fixed","5","53","53","red-92","red","20512","sampling-task","6","879108","0.0-5.0-0.0-0.0","119","tpe1h2r5","low"
"1","2","fixed","5","53","27","red-92","red","5782","sampling-task","7","889955","0.0-5.0-0.1-0.1","119","tpe1h2r5","low"
"1","3","fixed","5","53","57","red-92","red","2422","sampling-task","8","902947","0.0-5.0-0.2-0.2","119","tpe1h2r5","low"
"1","4","fixed","5","53","31","red-92","red","1278","sampling-task","9","907307","0.0-5.0-0.3-0.3","119","tpe1h2r5","low"
"1","5","fixed","5","53","68","red-92","red","1639","sampling-task","10","911035","0.0-5.0-0.4-0.4","119","tpe1h2r5","low"
"2","1","free","220","72","50","purple-207","purple","13916","sampling-task","13","961442","0.0-5.0-0.5-0.5","119","tpe1h2r5","low"
"2","2","free","220","72","65","purple-207","purple","966","sampling-task","14","966402","0.0-5.0-0.6-0.6","119","tpe1h2r5","low"
"2","3","free","220","72","93","purple-207","purple","1134","sampling-task","15","968978","0.0-5.0-0.7-0.7","119","tpe1h2r5","low"
"2","4","free","220","72","113","purple-207","purple","862","sampling-task","16","973953","0.0-5.0-0.8-0.8","119","tpe1h2r5","low"
"2","5","free","220","72","81","purple-207","purple","861","sampling-task","17","978968","0.0-5.0-0.9-0.9","119","tpe1h2r5","low"
"2","6","free","220","72","61","purple-207","purple","582","sampling-task","18","982216","0.0-5.0-0.10-0.10","119","tpe1h2r5","low"
"2","7","free","220","72","93","purple-207","purple","422","sampling-task","19","987368","0.0-5.0-0.11-0.11","119","tpe1h2r5","low"
"2","8","free","220","72","47","purple-207","purple","710","sampling-task","20","990145","0.0-5.0-0.12-0.12","119","tpe1h2r5","low"
"2","9","free","220","72","81","purple-207","purple","518","sampling-task","21","992512","0.0-5.0-0.13-0.13","119","tpe1h2r5","low"
"2","10","free","220","72","91","purple-207","purple","407","sampling-task","22","995144","0.0-5.0-0.14-0.14","119","tpe1h2r5","low"
"2","11","free","220","72","69","purple-207","purple","407","sampling-task","23","996784","0.0-5.0-0.15-0.15","119","tpe1h2r5","low"
"2","12","free","220","72","106","purple-207","purple","390","sampling-task","24","1000184","0.0-5.0-0.16-0.16","119","tpe1h2r5","low"
"2","13","free","220","72","73","purple-207","purple","486","sampling-task","25","1002720","0.0-5.0-0.17-0.17","119","tpe1h2r5","low"
"2","14","free","220","72","55","purple-207","purple","342","sampling-task","26","1004800","0.0-5.0-0.18-0.18","119","tpe1h2r5","low"
"2","15","free","220","72","54","purple-207","purple","303","sampling-task","27","1006560","0.0-5.0-0.19-0.19","119","tpe1h2r5","low"
"2","16","free","220","72","85","purple-207","purple","311","sampling-task","28","1011280","0.0-5.0-0.20-0.20","119","tpe1h2r5","low"
"2","17","free","220","72","91","purple-207","purple","494","sampling-task","29","1012840","0.0-5.0-0.21-0.21","119","tpe1h2r5","low"
"2","18","free","220","72","68","purple-207","purple","319","sampling-task","30","1017552","0.0-5.0-0.22-0.22","119","tpe1h2r5","low"
"2","19","free","220","72","93","purple-207","purple","598","sampling-task","31","1020921","0.0-5.0-0.23-0.23","119","tpe1h2r5","low"
"2","20","free","220","72","44","purple-207","purple","310","sampling-task","32","1022353","0.0-5.0-0.24-0.24","119","tpe1h2r5","low"
"2","21","free","220","72","79","purple-207","purple","358","sampling-task","33","1023585","0.0-5.0-0.25-0.25","119","tpe1h2r5","low"
"2","22","free","220","72","74","purple-207","purple","286","sampling-task","34","1024729","0.0-5.0-0.26-0.26","119","tpe1h2r5","low"
"2","23","free","220","72","54","purple-207","purple","326","sampling-task","35","1025880","0.0-5.0-0.27-0.27","119","tpe1h2r5","low"
"2","24","free","220","72","63","purple-207","purple","294","sampling-task","36","1027169","0.0-5.0-0.28-0.28","119","tpe1h2r5","low"
"2","25","free","220","72","86","purple-207","purple","277","sampling-task","37","1028288","0.0-5.0-0.29-0.29","119","tpe1h2r5","low"
"2","26","free","220","72","50","purple-207","purple","246","sampling-task","38","1029360","0.0-5.0-0.30-0.30","119","tpe1h2r5","low"
"2","27","free","220","72","103","purple-207","purple","254","sampling-task","39","1030424","0.0-5.0-0.31-0.31","119","tpe1h2r5","low"
"2","28","free","220","72","66","purple-207","purple","246","sampling-task","40","1031472","0.0-5.0-0.32-0.32","119","tpe1h2r5","low"
"2","29","free","220","72","56","purple-207","purple","239","sampling-task","41","1032808","0.0-5.0-0.33-0.33","119","tpe1h2r5","low"
"2","30","free","220","72","85","purple-207","purple","246","sampling-task","42","1035135","0.0-5.0-0.34-0.34","119","tpe1h2r5","low"
"3","1","fixed","10","16","-16","yellow-15","yellow","3860","sampling-task","45","1085383","0.0-5.0-0.35-0.35","119","tpe1h2r5","low"
"3","2","fixed","10","16","18","yellow-15","yellow","415","sampling-task","46","1089231","0.0-5.0-0.36-0.36","119","tpe1h2r5","low"
"3","3","fixed","10","16","29","yellow-15","yellow","3062","sampling-task","47","1095733","0.0-5.0-0.37-0.37","119","tpe1h2r5","low"
"3","4","fixed","10","16","38","yellow-15","yellow","901","sampling-task","48","1099061","0.0-5.0-0.38-0.38","119","tpe1h2r5","low"
"3","5","fixed","10","16","21","yellow-15","yellow","710","sampling-task","49","1104037","0.0-5.0-0.39-0.39","119","tpe1h2r5","low"
"3","6","fixed","10","16","5","yellow-15","yellow","814","sampling-task","50","1106917","0.0-5.0-0.40-0.40","119","tpe1h2r5","low"
"3","7","fixed","10","16","-4","yellow-15","yellow","791","sampling-task","51","1109837","0.0-5.0-0.41-0.41","119","tpe1h2r5","low"
"3","8","fixed","10","16","14","yellow-15","yellow","950","sampling-task","52","1113557","0.0-5.0-0.42-0.42","119","tpe1h2r5","low"
"3","9","fixed","10","16","29","yellow-15","yellow","662","sampling-task","53","1118413","0.0-5.0-0.43-0.43","119","tpe1h2r5","low"
"3","10","fixed","10","16","-19","yellow-15","yellow","630","sampling-task","54","1121949","0.0-5.0-0.44-0.44","119","tpe1h2r5","low"
"4","1","free","220","30","34","blue-32","blue","2261","sampling-task","57","1159644","0.0-5.0-0.45-0.45","119","tpe1h2r5","low"
"4","2","free","220","30","15","blue-32","blue","662","sampling-task","58","1165148","0.0-5.0-0.46-0.46","119","tpe1h2r5","low"
"4","3","free","220","30","-2","blue-32","blue","718","sampling-task","59","1168268","0.0-5.0-0.47-0.47","119","tpe1h2r5","low"
"4","4","free","220","30","28","blue-32","blue","646","sampling-task","60","1170964","0.0-5.0-0.48-0.48","119","tpe1h2r5","low"
"4","5","free","220","30","15","blue-32","blue","357","sampling-task","61","1175036","0.0-5.0-0.49-0.49","119","tpe1h2r5","low"
"4","6","free","220","30","25","blue-32","blue","3366","sampling-task","62","1180956","0.0-5.0-0.50-0.50","119","tpe1h2r5","low"
"4","7","free","220","30","6","blue-32","blue","526","sampling-task","63","1184148","0.0-5.0-0.51-0.51","119","tpe1h2r5","low"
"4","8","free","220","30","30","blue-32","blue","294","sampling-task","64","1188732","0.0-5.0-0.52-0.52","119","tpe1h2r5","low"
"4","9","free","220","30","58","blue-32","blue","295","sampling-task","65","1191444","0.0-5.0-0.53-0.53","119","tpe1h2r5","low"
"4","10","free","220","30","21","blue-32","blue","318","sampling-task","66","1195292","0.0-5.0-0.54-0.54","119","tpe1h2r5","low"
"4","11","free","220","30","24","blue-32","blue","646","sampling-task","67","1198260","0.0-5.0-0.55-0.55","119","tpe1h2r5","low"
"4","12","free","220","30","24","blue-32","blue","286","sampling-task","68","1201516","0.0-5.0-0.56-0.56","119","tpe1h2r5","low"
"4","13","free","220","30","7","blue-32","blue","550","sampling-task","69","1208196","0.0-5.0-0.57-0.57","119","tpe1h2r5","low"
"4","14","free","220","30","30","blue-32","blue","366","sampling-task","70","1211868","0.0-5.0-0.58-0.58","119","tpe1h2r5","low"
"4","15","free","220","30","30","blue-32","blue","390","sampling-task","71","1218466","0.0-5.0-0.59-0.59","119","tpe1h2r5","low"
"4","16","free","220","30","38","blue-32","blue","310","sampling-task","72","1220314","0.0-5.0-0.60-0.60","119","tpe1h2r5","low"
"4","17","free","220","30","22","blue-32","blue","278","sampling-task","73","1222698","0.0-5.0-0.61-0.61","119","tpe1h2r5","low"
"4","18","free","220","30","24","blue-32","blue","247","sampling-task","74","1224802","0.0-5.0-0.62-0.62","119","tpe1h2r5","low"
"4","19","free","220","30","24","blue-32","blue","262","sampling-task","75","1227250","0.0-5.0-0.63-0.63","119","tpe1h2r5","low"
"4","20","free","220","30","12","blue-32","blue","310","sampling-task","76","1231162","0.0-5.0-0.64-0.64","119","tpe1h2r5","low"
"4","21","free","220","30","40","blue-32","blue","238","sampling-task","77","1233282","0.0-5.0-0.65-0.65","119","tpe1h2r5","low"
"4","22","free","220","30","60","blue-32","blue","254","sampling-task","78","1235322","0.0-5.0-0.66-0.66","119","tpe1h2r5","low"
"4","23","free","220","30","-19","blue-32","blue","318","sampling-task","79","1237666","0.0-5.0-0.67-0.67","119","tpe1h2r5","low"
"4","24","free","220","30","17","blue-32","blue","239","sampling-task","80","1239538","0.0-5.0-0.68-0.68","119","tpe1h2r5","low"
"4","25","free","220","30","41","blue-32","blue","342","sampling-task","81","1241042","0.0-5.0-0.69-0.69","119","tpe1h2r5","low"
"4","26","free","220","30","36","blue-32","blue","230","sampling-task","82","1242330","0.0-5.0-0.70-0.70","119","tpe1h2r5","low"
"4","27","free","220","30","21","blue-32","blue","343","sampling-task","83","1243746","0.0-5.0-0.71-0.71","119","tpe1h2r5","low"
"4","28","free","220","30","43","blue-32","blue","223","sampling-task","84","1245539","0.0-5.0-0.72-0.72","119","tpe1h2r5","low"
"5","1","fixed","20","96","72","orange-87","orange","2589","sampling-task","87","1276658","0.0-5.0-0.73-0.73","119","tpe1h2r5","low"
"5","2","fixed","20","96","96","orange-87","orange","564","sampling-task","88","1280593","0.0-5.0-0.74-0.74","119","tpe1h2r5","low"
"5","3","fixed","20","96","119","orange-87","orange","414","sampling-task","89","1300921","0.0-5.0-0.75-0.75","119","tpe1h2r5","low"
"5","4","fixed","20","96","82","orange-87","orange","725","sampling-task","90","1303665","0.0-5.0-0.76-0.76","119","tpe1h2r5","low"
"5","5","fixed","20","96","81","orange-87","orange","798","sampling-task","91","1306241","0.0-5.0-0.77-0.77","119","tpe1h2r5","low"
"5","6","fixed","20","96","84","orange-87","orange","461","sampling-task","92","1308209","0.0-5.0-0.78-0.78","119","tpe1h2r5","low"
"5","7","fixed","20","96","97","orange-87","orange","398","sampling-task","93","1310233","0.0-5.0-0.79-0.79","119","tpe1h2r5","low"
"5","8","fixed","20","96","72","orange-87","orange","413","sampling-task","94","1313449","0.0-5.0-0.80-0.80","119","tpe1h2r5","low"
"5","9","fixed","20","96","102","orange-87","orange","382","sampling-task","95","1315713","0.0-5.0-0.81-0.81","119","tpe1h2r5","low"
"5","10","fixed","20","96","94","orange-87","orange","326","sampling-task","96","1327873","0.0-5.0-0.82-0.82","119","tpe1h2r5","low"
"5","11","fixed","20","96","86","orange-87","orange","358","sampling-task","97","1330545","0.0-5.0-0.83-0.83","119","tpe1h2r5","low"
"5","12","fixed","20","96","125","orange-87","orange","327","sampling-task","98","1333873","0.0-5.0-0.84-0.84","119","tpe1h2r5","low"
"5","13","fixed","20","96","104","orange-87","orange","494","sampling-task","99","1342727","0.0-5.0-0.85-0.85","119","tpe1h2r5","low"
"5","14","fixed","20","96","43","orange-87","orange","246","sampling-task","100","1345511","0.0-5.0-0.86-0.86","119","tpe1h2r5","low"
"5","15","fixed","20","96","114","orange-87","orange","286","sampling-task","101","1347407","0.0-5.0-0.87-0.87","119","tpe1h2r5","low"
"5","16","fixed","20","96","77","orange-87","orange","246","sampling-task","102","1348959","0.0-5.0-0.88-0.88","119","tpe1h2r5","low"
"5","17","fixed","20","96","72","orange-87","orange","263","sampling-task","103","1351399","0.0-5.0-0.89-0.89","119","tpe1h2r5","low"
"5","18","fixed","20","96","39","orange-87","orange","287","sampling-task","104","1353511","0.0-5.0-0.90-0.90","119","tpe1h2r5","low"
"5","19","fixed","20","96","125","orange-87","orange","310","sampling-task","105","1355135","0.0-5.0-0.91-0.91","119","tpe1h2r5","low"
"5","20","fixed","20","96","110","orange-87","orange","303","sampling-task","106","1356375","0.0-5.0-0.92-0.92","119","tpe1h2r5","low"
"6","1","free","220","116","113","green-218","green","3484","sampling-task","109","1384591","0.0-5.0-0.93-0.93","119","tpe1h2r5","low"
"6","2","free","220","116","97","green-218","green","350","sampling-task","110","1386063","0.0-5.0-0.94-0.94","119","tpe1h2r5","low"
"6","3","free","220","116","78","green-218","green","295","sampling-task","111","1387239","0.0-5.0-0.95-0.95","119","tpe1h2r5","low"
"6","4","free","220","116","104","green-218","green","262","sampling-task","112","1388775","0.0-5.0-0.96-0.96","119","tpe1h2r5","low"
"6","5","free","220","116","100","green-218","green","270","sampling-task","113","1390047","0.0-5.0-0.97-0.97","119","tpe1h2r5","low"
"6","6","free","220","116","106","green-218","green","263","sampling-task","114","1391607","0.0-5.0-0.98-0.98","119","tpe1h2r5","low"
"6","7","free","220","116","130","green-218","green","390","sampling-task","115","1392911","0.0-5.0-0.99-0.99","119","tpe1h2r5","low"
"6","8","free","220","116","113","green-218","green","350","sampling-task","116","1394159","0.0-5.0-0.100-0.100","119","tpe1h2r5","low"
"6","9","free","220","116","137","green-218","green","286","sampling-task","117","1395511","0.0-5.0-0.101-0.101","119","tpe1h2r5","low"
"6","10","free","220","116","105","green-218","green","294","sampling-task","118","1397071","0.0-5.0-0.102-0.102","119","tpe1h2r5","low"
"6","11","free","220","116","107","green-218","green","375","sampling-task","119","1398279","0.0-5.0-0.103-0.103","119","tpe1h2r5","low"
"6","12","free","220","116","128","green-218","green","318","sampling-task","120","1399631","0.0-5.0-0.104-0.104","119","tpe1h2r5","low"
"6","13","free","220","116","113","green-218","green","342","sampling-task","121","1400807","0.0-5.0-0.105-0.105","119","tpe1h2r5","low"
"6","14","free","220","116","119","green-218","green","262","sampling-task","122","1401894","0.0-5.0-0.106-0.106","119","tpe1h2r5","low"
"6","15","free","220","116","93","green-218","green","326","sampling-task","123","1403198","0.0-5.0-0.107-0.107","119","tpe1h2r5","low"
"6","16","free","220","116","117","green-218","green","270","sampling-task","124","1404318","0.0-5.0-0.108-0.108","119","tpe1h2r5","low"
"6","17","free","220","116","128","green-218","green","278","sampling-task","125","1405630","0.0-5.0-0.109-0.109","119","tpe1h2r5","low"
"6","18","free","220","116","125","green-218","green","854","sampling-task","126","1408014","0.0-5.0-0.110-0.110","119","tpe1h2r5","low"
"6","19","free","220","116","121","green-218","green","277","sampling-task","127","1409174","0.0-5.0-0.111-0.111","119","tpe1h2r5","low"
"6","20","free","220","116","133","green-218","green","278","sampling-task","128","1410342","0.0-5.0-0.112-0.112","119","tpe1h2r5","low"
"6","21","free","220","116","121","green-218","green","390","sampling-task","129","1411782","0.0-5.0-0.113-0.113","119","tpe1h2r5","low"
"6","22","free","220","116","77","green-218","green","429","sampling-task","130","1413206","0.0-5.0-0.114-0.114","119","tpe1h2r5","low"
"6","23","free","220","116","124","green-218","green","302","sampling-task","131","1414302","0.0-5.0-0.115-0.115","119","tpe1h2r5","low"
"6","24","free","220","116","131","green-218","green","293","sampling-task","132","1415782","0.0-5.0-0.116-0.116","119","tpe1h2r5","low"
"6","25","free","220","116","108","green-218","green","286","sampling-task","133","1416903","0.0-5.0-0.117-0.117","119","tpe1h2r5","low"
"6","26","free","220","116","75","green-218","green","228","sampling-task","134","1418102","0.0-5.0-0.118-0.118","119","tpe1h2r5","low"
"6","27","free","220","116","104","green-218","green","502","sampling-task","135","1419518","0.0-5.0-0.119-0.119","119","tpe1h2r5","low"
"6","28","free","220","116","107","green-218","green","253","sampling-task","136","1420622","0.0-5.0-0.120-0.120","119","tpe1h2r5","low"
"6","29","free","220","116","117","green-218","green","269","sampling-task","137","1421854","0.0-5.0-0.121-0.121","119","tpe1h2r5","low"
"6","30","free","220","116","129","green-218","green","238","sampling-task","138","1422910","0.0-5.0-0.122-0.122","119","tpe1h2r5","low"
"6","31","free","220","116","98","green-218","green","229","sampling-task","139","1423974","0.0-5.0-0.123-0.123","119","tpe1h2r5","low"
"6","32","free","220","116","130","green-218","green","230","sampling-task","140","1424998","0.0-5.0-0.124-0.124","119","tpe1h2r5","low"
"6","33","free","220","116","100","green-218","green","229","sampling-task","141","1426086","0.0-5.0-0.125-0.125","119","tpe1h2r5","low"
"6","34","free","220","116","124","green-218","green","301","sampling-task","142","1427294","0.0-5.0-0.126-0.126","119","tpe1h2r5","low"
"6","35","free","220","116","103","green-218","green","253","sampling-task","143","1428326","0.0-5.0-0.127-0.127","119","tpe1h2r5","low"
"6","36","free","220","116","123","green-218","green","261","sampling-task","144","1430670","0.0-5.0-0.128-0.128","119","tpe1h2r5","low"
"6","37","free","220","116","86","green-218","green","221","sampling-task","145","1431718","0.0-5.0-0.129-0.129","119","tpe1h2r5","low"
"6","38","free","220","116","120","green-218","green","381","sampling-task","146","1432902","0.0-5.0-0.130-0.130","119","tpe1h2r5","low"
"6","39","free","220","116","157","green-218","green","277","sampling-task","147","1433998","0.0-5.0-0.131-0.131","119","tpe1h2r5","low"
"6","40","free","220","116","112","green-218","green","278","sampling-task","148","1435078","0.0-5.0-0.132-0.132","119","tpe1h2r5","low"
"6","41","free","220","116","114","green-218","green","261","sampling-task","149","1436110","0.0-5.0-0.133-0.133","119","tpe1h2r5","low"
"6","42","free","220","116","103","green-218","green","246","sampling-task","150","1437238","0.0-5.0-0.134-0.134","119","tpe1h2r5","low"
"6","43","free","220","116","121","green-218","green","277","sampling-task","151","1438446","0.0-5.0-0.135-0.135","119","tpe1h2r5","low"
"6","44","free","220","116","137","green-218","green","229","sampling-task","152","1439598","0.0-5.0-0.136-0.136","119","tpe1h2r5","low"
"6","45","free","220","116","114","green-218","green","381","sampling-task","153","1440830","0.0-5.0-0.137-0.137","119","tpe1h2r5","low"
"6","46","free","220","116","100","green-218","green","269","sampling-task","154","1441902","0.0-5.0-0.138-0.138","119","tpe1h2r5","low"
"6","47","free","220","116","104","green-218","green","246","sampling-task","155","1443062","0.0-5.0-0.139-0.139","119","tpe1h2r5","low"
"6","48","free","220","116","78","green-218","green","237","sampling-task","156","1444662","0.0-5.0-0.140-0.140","119","tpe1h2r5","low"
"6","49","free","220","116","112","green-218","green","262","sampling-task","157","1445862","0.0-5.0-0.141-0.141","119","tpe1h2r5","low"
"6","50","free","220","116","136","green-218","green","397","sampling-task","158","1447286","0.0-5.0-0.142-0.142","119","tpe1h2r5","low"
"6","51","free","220","116","138","green-218","green","229","sampling-task","159","1449102","0.0-5.0-0.143-0.143","119","tpe1h2r5","low"
"6","52","free","220","116","144","green-218","green","253","sampling-task","160","1450590","0.0-5.0-0.144-0.144","119","tpe1h2r5","low"
