"round_number","sample_number","sampling_type","nSamples","mean","feedback","stimulus","stimulus_colour","rt","trial_type","trial_index","time_elapsed","internal_node_id","participant","randomID","condition"
"1","1","fixed","20","97","39","purple-14","purple","4174","sampling-task","6","285134","0.0-5.0-0.0-0.0","21","n59lglkl","high"
"1","2","fixed","20","97","87","purple-109","purple","2390","sampling-task","7","290317","0.0-5.0-0.1-0.1","21","n59lglkl","high"
"1","3","fixed","20","97","133","purple-51","purple","1150","sampling-task","8","304630","0.0-5.0-0.2-0.2","21","n59lglkl","high"
"1","4","fixed","20","97","104","purple-105","purple","622","sampling-task","9","306446","0.0-5.0-0.3-0.3","21","n59lglkl","high"
"1","5","fixed","20","97","143","purple-87","purple","1238","sampling-task","10","312069","0.0-5.0-0.4-0.4","21","n59lglkl","high"
"1","6","fixed","20","97","76","purple-60","purple","990","sampling-task","11","314774","0.0-5.0-0.5-0.5","21","n59lglkl","high"
"1","7","fixed","20","97","59","purple-214","purple","741","sampling-task","12","317430","0.0-5.0-0.6-0.6","21","n59lglkl","high"
"1","8","fixed","20","97","79","purple-64","purple","486","sampling-task","13","319318","0.0-5.0-0.7-0.7","21","n59lglkl","high"
"1","9","fixed","20","97","76","purple-34","purple","358","sampling-task","14","320942","0.0-5.0-0.8-0.8","21","n59lglkl","high"
"1","10","fixed","20","97","91","purple-30","purple","374","sampling-task","15","323438","0.0-5.0-0.9-0.9","21","n59lglkl","high"
"1","11","fixed","20","97","93","purple-214","purple","446","sampling-task","16","325262","0.0-5.0-0.10-0.10","21","n59lglkl","high"
"1","12","fixed","20","97","112","purple-17","purple","446","sampling-task","17","327005","0.0-5.0-0.11-0.11","21","n59lglkl","high"
"1","13","fixed","20","97","83","purple-168","purple","406","sampling-task","18","328453","0.0-5.0-0.12-0.12","21","n59lglkl","high"
"1","14","fixed","20","97","73","purple-111","purple","566","sampling-task","19","330053","0.0-5.0-0.13-0.13","21","n59lglkl","high"
"1","15","fixed","20","97","98","purple-39","purple","366","sampling-task","20","331413","0.0-5.0-0.14-0.14","21","n59lglkl","high"
"1","16","fixed","20","97","132","purple-104","purple","382","sampling-task","21","333549","0.0-5.0-0.15-0.15","21","n59lglkl","high"
"1","17","fixed","20","97","133","purple-91","purple","798","sampling-task","22","336709","0.0-5.0-0.16-0.16","21","n59lglkl","high"
"1","18","fixed","20","97","132","purple-210","purple","606","sampling-task","23","338677","0.0-5.0-0.17-0.17","21","n59lglkl","high"
"1","19","fixed","20","97","113","purple-120","purple","413","sampling-task","24","340637","0.0-5.0-0.18-0.18","21","n59lglkl","high"
"1","20","fixed","20","97","99","purple-16","purple","390","sampling-task","25","342357","0.0-5.0-0.19-0.19","21","n59lglkl","high"
"2","1","free","220","38","46","blue-106","blue","1404","sampling-task","28","387197","0.0-5.0-0.20-0.20","21","n59lglkl","high"
"2","2","free","220","38","56","blue-137","blue","886","sampling-task","29","389597","0.0-5.0-0.21-0.21","21","n59lglkl","high"
"2","3","free","220","38","23","blue-206","blue","454","sampling-task","30","391189","0.0-5.0-0.22-0.22","21","n59lglkl","high"
"2","4","free","220","38","16","blue-138","blue","9886","sampling-task","31","402357","0.0-5.0-0.23-0.23","21","n59lglkl","high"
"2","5","free","220","38","62","blue-177","blue","309","sampling-task","32","403893","0.0-5.0-0.24-0.24","21","n59lglkl","high"
"2","6","free","220","38","34","blue-64","blue","278","sampling-task","33","405197","0.0-5.0-0.25-0.25","21","n59lglkl","high"
"2","7","free","220","38","52","blue-27","blue","262","sampling-task","34","406421","0.0-5.0-0.26-0.26","21","n59lglkl","high"
"2","8","free","220","38","38","blue-178","blue","407","sampling-task","35","407661","0.0-5.0-0.27-0.27","21","n59lglkl","high"
"2","9","free","220","38","24","blue-94","blue","390","sampling-task","36","408901","0.0-5.0-0.28-0.28","21","n59lglkl","high"
"2","10","free","220","38","44","blue-1","blue","374","sampling-task","37","410173","0.0-5.0-0.29-0.29","21","n59lglkl","high"
"2","11","free","220","38","47","blue-126","blue","334","sampling-task","38","411501","0.0-5.0-0.30-0.30","21","n59lglkl","high"
"2","12","free","220","38","35","blue-5","blue","278","sampling-task","39","412693","0.0-5.0-0.31-0.31","21","n59lglkl","high"
"2","13","free","220","38","50","blue-36","blue","294","sampling-task","40","413909","0.0-5.0-0.32-0.32","21","n59lglkl","high"
"2","14","free","220","38","37","blue-43","blue","359","sampling-task","41","415237","0.0-5.0-0.33-0.33","21","n59lglkl","high"
"2","15","free","220","38","62","blue-2","blue","366","sampling-task","42","416989","0.0-5.0-0.34-0.34","21","n59lglkl","high"
"2","16","free","220","38","26","blue-154","blue","350","sampling-task","43","418229","0.0-5.0-0.35-0.35","21","n59lglkl","high"
"2","17","free","220","38","60","blue-204","blue","358","sampling-task","44","419597","0.0-5.0-0.36-0.36","21","n59lglkl","high"
"2","18","free","220","38","46","blue-168","blue","373","sampling-task","45","420853","0.0-5.0-0.37-0.37","21","n59lglkl","high"
"2","19","free","220","38","32","blue-71","blue","357","sampling-task","46","422149","0.0-5.0-0.38-0.38","21","n59lglkl","high"
"2","20","free","220","38","75","blue-150","blue","398","sampling-task","47","424309","0.0-5.0-0.39-0.39","21","n59lglkl","high"
"2","21","free","220","38","61","blue-213","blue","341","sampling-task","48","425525","0.0-5.0-0.40-0.40","21","n59lglkl","high"
"2","22","free","220","38","16","blue-165","blue","351","sampling-task","49","426805","0.0-5.0-0.41-0.41","21","n59lglkl","high"
"2","23","free","220","38","87","blue-220","blue","366","sampling-task","50","428621","0.0-5.0-0.42-0.42","21","n59lglkl","high"
"3","1","fixed","5","71","61","red-128","red","2036","sampling-task","53","553196","0.0-5.0-0.43-0.43","21","n59lglkl","high"
"3","2","fixed","5","71","69","red-45","red","686","sampling-task","54","555139","0.0-5.0-0.44-0.44","21","n59lglkl","high"
"3","3","fixed","5","71","65","red-72","red","446","sampling-task","55","557035","0.0-5.0-0.45-0.45","21","n59lglkl","high"
"3","4","fixed","5","71","49","red-51","red","438","sampling-task","56","558635","0.0-5.0-0.46-0.46","21","n59lglkl","high"
"3","5","fixed","5","71","49","red-85","red","470","sampling-task","57","560196","0.0-5.0-0.47-0.47","21","n59lglkl","high"
"4","1","free","220","116","122","green-165","green","1933","sampling-task","60","581483","0.0-5.0-0.48-0.48","21","n59lglkl","high"
"4","2","free","220","116","120","green-214","green","446","sampling-task","61","582899","0.0-5.0-0.49-0.49","21","n59lglkl","high"
"4","3","free","220","116","108","green-42","green","318","sampling-task","62","584563","0.0-5.0-0.50-0.50","21","n59lglkl","high"
"4","4","free","220","116","65","green-86","green","310","sampling-task","63","585699","0.0-5.0-0.51-0.51","21","n59lglkl","high"
"4","5","free","220","116","127","green-127","green","278","sampling-task","64","587403","0.0-5.0-0.52-0.52","21","n59lglkl","high"
"5","1","fixed","10","59","40","yellow-59","yellow","2572","sampling-task","67","612074","0.0-5.0-0.53-0.53","21","n59lglkl","high"
"5","2","fixed","10","59","73","yellow-94","yellow","382","sampling-task","68","614202","0.0-5.0-0.54-0.54","21","n59lglkl","high"
"5","3","fixed","10","59","74","yellow-148","yellow","431","sampling-task","69","616170","0.0-5.0-0.55-0.55","21","n59lglkl","high"
"5","4","fixed","10","59","56","yellow-70","yellow","302","sampling-task","70","617307","0.0-5.0-0.56-0.56","21","n59lglkl","high"
"5","5","fixed","10","59","70","yellow-31","yellow","270","sampling-task","71","618466","0.0-5.0-0.57-0.57","21","n59lglkl","high"
"5","6","fixed","10","59","55","yellow-142","yellow","270","sampling-task","72","619962","0.0-5.0-0.58-0.58","21","n59lglkl","high"
"5","7","fixed","10","59","62","yellow-151","yellow","302","sampling-task","73","621090","0.0-5.0-0.59-0.59","21","n59lglkl","high"
"5","8","fixed","10","59","62","yellow-97","yellow","294","sampling-task","74","622170","0.0-5.0-0.60-0.60","21","n59lglkl","high"
"5","9","fixed","10","59","91","yellow-130","yellow","262","sampling-task","75","623667","0.0-5.0-0.61-0.61","21","n59lglkl","high"
"5","10","fixed","10","59","57","yellow-132","yellow","342","sampling-task","76","624843","0.0-5.0-0.62-0.62","21","n59lglkl","high"
"6","1","free","220","16","37","orange-174","orange","2820","sampling-task","79","644194","0.0-5.0-0.63-0.63","21","n59lglkl","high"
"6","2","free","220","16","36","orange-110","orange","694","sampling-task","80","645882","0.0-5.0-0.64-0.64","21","n59lglkl","high"
"6","3","free","220","16","5","orange-94","orange","246","sampling-task","81","646946","0.0-5.0-0.65-0.65","21","n59lglkl","high"
"6","4","free","220","16","21","orange-39","orange","262","sampling-task","82","648426","0.0-5.0-0.66-0.66","21","n59lglkl","high"
"6","5","free","220","16","33","orange-125","orange","318","sampling-task","83","650034","0.0-5.0-0.67-0.67","21","n59lglkl","high"
"6","6","free","220","16","-4","orange-206","orange","254","sampling-task","84","651330","0.0-5.0-0.68-0.68","21","n59lglkl","high"
"6","7","free","220","16","-3","orange-11","orange","398","sampling-task","85","652746","0.0-5.0-0.69-0.69","21","n59lglkl","high"
"6","8","free","220","16","4","orange-83","orange","398","sampling-task","86","654027","0.0-5.0-0.70-0.70","21","n59lglkl","high"
"6","9","free","220","16","31","orange-140","orange","382","sampling-task","87","655771","0.0-5.0-0.71-0.71","21","n59lglkl","high"
