"round_number","sample_number","sampling_type","nSamples","mean","feedback","stimulus","stimulus_colour","rt","trial_type","trial_index","time_elapsed","internal_node_id","participant","randomID","condition"
"1","1","fixed","5","37","43","blue-168","blue","36460","sampling-task","6","353283","0.0-5.0-0.0-0.0","48","39gnpprh","low"
"1","2","fixed","5","37","33","blue-168","blue","23973","sampling-task","7","378883","0.0-5.0-0.1-0.1","48","39gnpprh","low"
"1","3","fixed","5","37","26","blue-168","blue","3519","sampling-task","8","383875","0.0-5.0-0.2-0.2","48","39gnpprh","low"
"1","4","fixed","5","37","31","blue-168","blue","782","sampling-task","9","386091","0.0-5.0-0.3-0.3","48","39gnpprh","low"
"1","5","fixed","5","37","16","blue-168","blue","6279","sampling-task","10","393891","0.0-5.0-0.4-0.4","48","39gnpprh","low"
"2","1","free","220","71","73","green-198","green","6484","sampling-task","13","461691","0.0-5.0-0.5-0.5","48","39gnpprh","low"
"2","2","free","220","71","95","green-198","green","470","sampling-task","14","463555","0.0-5.0-0.6-0.6","48","39gnpprh","low"
"2","3","free","220","71","59","green-198","green","398","sampling-task","15","464915","0.0-5.0-0.7-0.7","48","39gnpprh","low"
"2","4","free","220","71","52","green-198","green","382","sampling-task","16","466427","0.0-5.0-0.8-0.8","48","39gnpprh","low"
"2","5","free","220","71","98","green-198","green","398","sampling-task","17","467843","0.0-5.0-0.9-0.9","48","39gnpprh","low"
"2","6","free","220","71","86","green-198","green","398","sampling-task","18","469082","0.0-5.0-0.10-0.10","48","39gnpprh","low"
"2","7","free","220","71","58","green-198","green","302","sampling-task","19","470210","0.0-5.0-0.11-0.11","48","39gnpprh","low"
"2","8","free","220","71","67","green-198","green","294","sampling-task","20","471675","0.0-5.0-0.12-0.12","48","39gnpprh","low"
"2","9","free","220","71","62","green-198","green","358","sampling-task","21","472908","0.0-5.0-0.13-0.13","48","39gnpprh","low"
"2","10","free","220","71","47","green-198","green","293","sampling-task","22","474307","0.0-5.0-0.14-0.14","48","39gnpprh","low"
"2","11","free","220","71","77","green-198","green","310","sampling-task","23","476106","0.0-5.0-0.15-0.15","48","39gnpprh","low"
"3","1","fixed","20","96","74","yellow-158","yellow","4221","sampling-task","26","505691","0.0-5.0-0.16-0.16","48","39gnpprh","low"
"3","2","fixed","20","96","106","yellow-158","yellow","389","sampling-task","27","506891","0.0-5.0-0.17-0.17","48","39gnpprh","low"
"3","3","fixed","20","96","104","yellow-158","yellow","302","sampling-task","28","507987","0.0-5.0-0.18-0.18","48","39gnpprh","low"
"3","4","fixed","20","96","124","yellow-158","yellow","318","sampling-task","29","509123","0.0-5.0-0.19-0.19","48","39gnpprh","low"
"3","5","fixed","20","96","74","yellow-158","yellow","358","sampling-task","30","510283","0.0-5.0-0.20-0.20","48","39gnpprh","low"
"3","6","fixed","20","96","70","yellow-158","yellow","294","sampling-task","31","511403","0.0-5.0-0.21-0.21","48","39gnpprh","low"
"3","7","fixed","20","96","107","yellow-158","yellow","310","sampling-task","32","512491","0.0-5.0-0.22-0.22","48","39gnpprh","low"
"3","8","fixed","20","96","122","yellow-158","yellow","342","sampling-task","33","513611","0.0-5.0-0.23-0.23","48","39gnpprh","low"
"3","9","fixed","20","96","85","yellow-158","yellow","302","sampling-task","34","514675","0.0-5.0-0.24-0.24","48","39gnpprh","low"
"3","10","fixed","20","96","84","yellow-158","yellow","285","sampling-task","35","515715","0.0-5.0-0.25-0.25","48","39gnpprh","low"
"3","11","fixed","20","96","109","yellow-158","yellow","294","sampling-task","36","516891","0.0-5.0-0.26-0.26","48","39gnpprh","low"
"3","12","fixed","20","96","57","yellow-158","yellow","390","sampling-task","37","518051","0.0-5.0-0.27-0.27","48","39gnpprh","low"
"3","13","fixed","20","96","94","yellow-158","yellow","310","sampling-task","38","519163","0.0-5.0-0.28-0.28","48","39gnpprh","low"
"3","14","fixed","20","96","118","yellow-158","yellow","278","sampling-task","39","520267","0.0-5.0-0.29-0.29","48","39gnpprh","low"
"3","15","fixed","20","96","123","yellow-158","yellow","270","sampling-task","40","521379","0.0-5.0-0.30-0.30","48","39gnpprh","low"
"3","16","fixed","20","96","62","yellow-158","yellow","286","sampling-task","41","522666","0.0-5.0-0.31-0.31","48","39gnpprh","low"
"3","17","fixed","20","96","97","yellow-158","yellow","390","sampling-task","42","525762","0.0-5.0-0.32-0.32","48","39gnpprh","low"
"3","18","fixed","20","96","86","yellow-158","yellow","343","sampling-task","43","526866","0.0-5.0-0.33-0.33","48","39gnpprh","low"
"3","19","fixed","20","96","88","yellow-158","yellow","309","sampling-task","44","527946","0.0-5.0-0.34-0.34","48","39gnpprh","low"
"3","20","fixed","20","96","121","yellow-158","yellow","334","sampling-task","45","529050","0.0-5.0-0.35-0.35","48","39gnpprh","low"
"4","1","free","220","16","17","orange-57","orange","4107","sampling-task","48","551570","0.0-5.0-0.36-0.36","48","39gnpprh","low"
"4","2","free","220","16","34","orange-57","orange","534","sampling-task","49","553122","0.0-5.0-0.37-0.37","48","39gnpprh","low"
"4","3","free","220","16","82","orange-57","orange","357","sampling-task","50","554306","0.0-5.0-0.38-0.38","48","39gnpprh","low"
"4","4","free","220","16","7","orange-57","orange","343","sampling-task","51","555442","0.0-5.0-0.39-0.39","48","39gnpprh","low"
"4","5","free","220","16","-8","orange-57","orange","311","sampling-task","52","556570","0.0-5.0-0.40-0.40","48","39gnpprh","low"
"4","6","free","220","16","40","orange-57","orange","310","sampling-task","53","557690","0.0-5.0-0.41-0.41","48","39gnpprh","low"
"4","7","free","220","16","21","orange-57","orange","262","sampling-task","54","558779","0.0-5.0-0.42-0.42","48","39gnpprh","low"
"4","8","free","220","16","13","orange-57","orange","294","sampling-task","55","560378","0.0-5.0-0.43-0.43","48","39gnpprh","low"
"4","9","free","220","16","30","orange-57","orange","311","sampling-task","56","561474","0.0-5.0-0.44-0.44","48","39gnpprh","low"
"4","10","free","220","16","36","orange-57","orange","303","sampling-task","57","562570","0.0-5.0-0.45-0.45","48","39gnpprh","low"
"4","11","free","220","16","13","orange-57","orange","327","sampling-task","58","563706","0.0-5.0-0.46-0.46","48","39gnpprh","low"
"4","12","free","220","16","22","orange-57","orange","254","sampling-task","59","565354","0.0-5.0-0.47-0.47","48","39gnpprh","low"
"5","1","fixed","10","110","120","purple-161","purple","2348","sampling-task","62","585362","0.0-5.0-0.48-0.48","48","39gnpprh","low"
"5","2","fixed","10","110","122","purple-161","purple","422","sampling-task","63","586594","0.0-5.0-0.49-0.49","48","39gnpprh","low"
"5","3","fixed","10","110","96","purple-161","purple","342","sampling-task","64","587753","0.0-5.0-0.50-0.50","48","39gnpprh","low"
"5","4","fixed","10","110","99","purple-161","purple","406","sampling-task","65","588954","0.0-5.0-0.51-0.51","48","39gnpprh","low"
"5","5","fixed","10","110","107","purple-161","purple","358","sampling-task","66","590098","0.0-5.0-0.52-0.52","48","39gnpprh","low"
"5","6","fixed","10","110","109","purple-161","purple","374","sampling-task","67","591417","0.0-5.0-0.53-0.53","48","39gnpprh","low"
"5","7","fixed","10","110","69","purple-161","purple","494","sampling-task","68","592690","0.0-5.0-0.54-0.54","48","39gnpprh","low"
"5","8","fixed","10","110","112","purple-161","purple","342","sampling-task","69","593842","0.0-5.0-0.55-0.55","48","39gnpprh","low"
"5","9","fixed","10","110","113","purple-161","purple","294","sampling-task","70","594945","0.0-5.0-0.56-0.56","48","39gnpprh","low"
"5","10","fixed","10","110","98","purple-161","purple","382","sampling-task","71","596193","0.0-5.0-0.57-0.57","48","39gnpprh","low"
"6","1","free","220","54","42","red-170","red","1949","sampling-task","74","615690","0.0-5.0-0.58-0.58","48","39gnpprh","low"
"6","2","free","220","54","54","red-170","red","358","sampling-task","75","616866","0.0-5.0-0.59-0.59","48","39gnpprh","low"
"6","3","free","220","54","75","red-170","red","302","sampling-task","76","617930","0.0-5.0-0.60-0.60","48","39gnpprh","low"
"6","4","free","220","54","29","red-170","red","310","sampling-task","77","619002","0.0-5.0-0.61-0.61","48","39gnpprh","low"
"6","5","free","220","54","15","red-170","red","302","sampling-task","78","620129","0.0-5.0-0.62-0.62","48","39gnpprh","low"
"6","6","free","220","54","47","red-170","red","318","sampling-task","79","621498","0.0-5.0-0.63-0.63","48","39gnpprh","low"
"6","7","free","220","54","90","red-170","red","358","sampling-task","80","622642","0.0-5.0-0.64-0.64","48","39gnpprh","low"
"6","8","free","220","54","65","red-170","red","286","sampling-task","81","623706","0.0-5.0-0.65-0.65","48","39gnpprh","low"
"6","9","free","220","54","79","red-170","red","262","sampling-task","82","624730","0.0-5.0-0.66-0.66","48","39gnpprh","low"
"6","10","free","220","54","67","red-170","red","293","sampling-task","83","625810","0.0-5.0-0.67-0.67","48","39gnpprh","low"
"6","11","free","220","54","48","red-170","red","238","sampling-task","84","626834","0.0-5.0-0.68-0.68","48","39gnpprh","low"
"6","12","free","220","54","64","red-170","red","766","sampling-task","85","628514","0.0-5.0-0.69-0.69","48","39gnpprh","low"
"6","13","free","220","54","91","red-170","red","414","sampling-task","86","629745","0.0-5.0-0.70-0.70","48","39gnpprh","low"
"6","14","free","220","54","60","red-170","red","286","sampling-task","87","630818","0.0-5.0-0.71-0.71","48","39gnpprh","low"
"6","15","free","220","54","43","red-170","red","286","sampling-task","88","631938","0.0-5.0-0.72-0.72","48","39gnpprh","low"
"6","16","free","220","54","55","red-170","red","310","sampling-task","89","633082","0.0-5.0-0.73-0.73","48","39gnpprh","low"
"6","17","free","220","54","64","red-170","red","286","sampling-task","90","634162","0.0-5.0-0.74-0.74","48","39gnpprh","low"
"6","18","free","220","54","79","red-170","red","262","sampling-task","91","635178","0.0-5.0-0.75-0.75","48","39gnpprh","low"
"6","19","free","220","54","62","red-170","red","293","sampling-task","92","636506","0.0-5.0-0.76-0.76","48","39gnpprh","low"
"6","20","free","220","54","55","red-170","red","230","sampling-task","93","637530","0.0-5.0-0.77-0.77","48","39gnpprh","low"
"6","21","free","220","54","44","red-170","red","238","sampling-task","94","638538","0.0-5.0-0.78-0.78","48","39gnpprh","low"
"6","22","free","220","54","12","red-170","red","205","sampling-task","95","639538","0.0-5.0-0.79-0.79","48","39gnpprh","low"
"6","23","free","220","54","55","red-170","red","222","sampling-task","96","641226","0.0-5.0-0.80-0.80","48","39gnpprh","low"
"6","24","free","220","54","65","red-170","red","245","sampling-task","97","642297","0.0-5.0-0.81-0.81","48","39gnpprh","low"
