"round_number","sample_number","sampling_type","nSamples","mean","feedback","stimulus","stimulus_colour","rt","trial_type","trial_index","time_elapsed","internal_node_id","participant","randomID","condition"
"1","1","fixed","5","11","19","orange-19","orange","12463","sampling-task","6","344594","0.0-5.0-0.0-0.0","34","pxa9htlw","low"
"1","2","fixed","5","11","20","orange-19","orange","1958","sampling-task","7","348298","0.0-5.0-0.1-0.1","34","pxa9htlw","low"
"1","3","fixed","5","11","11","orange-19","orange","1486","sampling-task","8","352738","0.0-5.0-0.2-0.2","34","pxa9htlw","low"
"1","4","fixed","5","11","57","orange-19","orange","934","sampling-task","9","358066","0.0-5.0-0.3-0.3","34","pxa9htlw","low"
"1","5","fixed","5","11","12","orange-19","orange","2373","sampling-task","10","370578","0.0-5.0-0.4-0.4","34","pxa9htlw","low"
"2","1","free","220","110","129","blue-96","blue","5004","sampling-task","13","434184","0.0-5.0-0.5-0.5","34","pxa9htlw","low"
"2","2","free","220","110","114","blue-96","blue","702","sampling-task","14","439607","0.0-5.0-0.6-0.6","34","pxa9htlw","low"
"2","3","free","220","110","140","blue-96","blue","541","sampling-task","15","445311","0.0-5.0-0.7-0.7","34","pxa9htlw","low"
"2","4","free","220","110","137","blue-96","blue","590","sampling-task","16","447391","0.0-5.0-0.8-0.8","34","pxa9htlw","low"
"2","5","free","220","110","155","blue-96","blue","558","sampling-task","17","449543","0.0-5.0-0.9-0.9","34","pxa9htlw","low"
"2","6","free","220","110","110","blue-96","blue","461","sampling-task","18","450991","0.0-5.0-0.10-0.10","34","pxa9htlw","low"
"2","7","free","220","110","115","blue-96","blue","550","sampling-task","19","452711","0.0-5.0-0.11-0.11","34","pxa9htlw","low"
"2","8","free","220","110","81","blue-96","blue","846","sampling-task","20","454655","0.0-5.0-0.12-0.12","34","pxa9htlw","low"
"2","9","free","220","110","82","blue-96","blue","574","sampling-task","21","456311","0.0-5.0-0.13-0.13","34","pxa9htlw","low"
"2","10","free","220","110","40","blue-96","blue","862","sampling-task","22","458359","0.0-5.0-0.14-0.14","34","pxa9htlw","low"
"2","11","free","220","110","79","blue-96","blue","598","sampling-task","23","460103","0.0-5.0-0.15-0.15","34","pxa9htlw","low"
"2","12","free","220","110","90","blue-96","blue","694","sampling-task","24","461823","0.0-5.0-0.16-0.16","34","pxa9htlw","low"
"2","13","free","220","110","117","blue-96","blue","614","sampling-task","25","465375","0.0-5.0-0.17-0.17","34","pxa9htlw","low"
"2","14","free","220","110","142","blue-96","blue","533","sampling-task","26","468567","0.0-5.0-0.18-0.18","34","pxa9htlw","low"
"3","1","fixed","10","30","17","yellow-143","yellow","2444","sampling-task","29","497455","0.0-5.0-0.19-0.19","34","pxa9htlw","low"
"3","2","fixed","10","30","-18","yellow-143","yellow","484","sampling-task","30","499558","0.0-5.0-0.20-0.20","34","pxa9htlw","low"
"3","3","fixed","10","30","28","yellow-143","yellow","654","sampling-task","31","502598","0.0-5.0-0.21-0.21","34","pxa9htlw","low"
"3","4","fixed","10","30","28","yellow-143","yellow","1350","sampling-task","32","505214","0.0-5.0-0.22-0.22","34","pxa9htlw","low"
"3","5","fixed","10","30","37","yellow-143","yellow","574","sampling-task","33","507974","0.0-5.0-0.23-0.23","34","pxa9htlw","low"
"3","6","fixed","10","30","40","yellow-143","yellow","542","sampling-task","34","510750","0.0-5.0-0.24-0.24","34","pxa9htlw","low"
"3","7","fixed","10","30","44","yellow-143","yellow","550","sampling-task","35","513062","0.0-5.0-0.25-0.25","34","pxa9htlw","low"
"3","8","fixed","10","30","41","yellow-143","yellow","510","sampling-task","36","514734","0.0-5.0-0.26-0.26","34","pxa9htlw","low"
"3","9","fixed","10","30","29","yellow-143","yellow","694","sampling-task","37","517678","0.0-5.0-0.27-0.27","34","pxa9htlw","low"
"3","10","fixed","10","30","30","yellow-143","yellow","582","sampling-task","38","520270","0.0-5.0-0.28-0.28","34","pxa9htlw","low"
"4","1","free","220","70","45","red-190","red","1740","sampling-task","41","548174","0.0-5.0-0.29-0.29","34","pxa9htlw","low"
"4","2","free","220","70","77","red-190","red","470","sampling-task","42","549518","0.0-5.0-0.30-0.30","34","pxa9htlw","low"
"4","3","free","220","70","54","red-190","red","470","sampling-task","43","550886","0.0-5.0-0.31-0.31","34","pxa9htlw","low"
"4","4","free","220","70","65","red-190","red","494","sampling-task","44","552414","0.0-5.0-0.32-0.32","34","pxa9htlw","low"
"4","5","free","220","70","90","red-190","red","877","sampling-task","45","554446","0.0-5.0-0.33-0.33","34","pxa9htlw","low"
"4","6","free","220","70","58","red-190","red","558","sampling-task","46","556366","0.0-5.0-0.34-0.34","34","pxa9htlw","low"
"4","7","free","220","70","65","red-190","red","766","sampling-task","47","558317","0.0-5.0-0.35-0.35","34","pxa9htlw","low"
"4","8","free","220","70","4","red-190","red","573","sampling-task","48","560580","0.0-5.0-0.36-0.36","34","pxa9htlw","low"
"4","9","free","220","70","52","red-190","red","575","sampling-task","49","562676","0.0-5.0-0.37-0.37","34","pxa9htlw","low"
"4","10","free","220","70","97","red-190","red","718","sampling-task","50","564868","0.0-5.0-0.38-0.38","34","pxa9htlw","low"
"4","11","free","220","70","77","red-190","red","447","sampling-task","51","566309","0.0-5.0-0.39-0.39","34","pxa9htlw","low"
"4","12","free","220","70","51","red-190","red","398","sampling-task","52","568228","0.0-5.0-0.40-0.40","34","pxa9htlw","low"
"4","13","free","220","70","76","red-190","red","510","sampling-task","53","570564","0.0-5.0-0.41-0.41","34","pxa9htlw","low"
"4","14","free","220","70","78","red-190","red","630","sampling-task","54","572884","0.0-5.0-0.42-0.42","34","pxa9htlw","low"
"4","15","free","220","70","83","red-190","red","582","sampling-task","55","575108","0.0-5.0-0.43-0.43","34","pxa9htlw","low"
"4","16","free","220","70","52","red-190","red","543","sampling-task","56","577052","0.0-5.0-0.44-0.44","34","pxa9htlw","low"
"4","17","free","220","70","85","red-190","red","462","sampling-task","57","578725","0.0-5.0-0.45-0.45","34","pxa9htlw","low"
"4","18","free","220","70","43","red-190","red","614","sampling-task","58","580788","0.0-5.0-0.46-0.46","34","pxa9htlw","low"
"4","19","free","220","70","65","red-190","red","526","sampling-task","59","582780","0.0-5.0-0.47-0.47","34","pxa9htlw","low"
"4","20","free","220","70","61","red-190","red","526","sampling-task","60","584812","0.0-5.0-0.48-0.48","34","pxa9htlw","low"
"4","21","free","220","70","88","red-190","red","494","sampling-task","61","586524","0.0-5.0-0.49-0.49","34","pxa9htlw","low"
"4","22","free","220","70","32","red-190","red","510","sampling-task","62","588356","0.0-5.0-0.50-0.50","34","pxa9htlw","low"
"4","23","free","220","70","51","red-190","red","646","sampling-task","63","598884","0.0-5.0-0.51-0.51","34","pxa9htlw","low"
"4","24","free","220","70","72","red-190","red","414","sampling-task","64","600732","0.0-5.0-0.52-0.52","34","pxa9htlw","low"
"5","1","fixed","20","93","78","purple-53","purple","5372","sampling-task","67","627244","0.0-5.0-0.53-0.53","34","pxa9htlw","low"
"5","2","fixed","20","93","147","purple-53","purple","470","sampling-task","68","629212","0.0-5.0-0.54-0.54","34","pxa9htlw","low"
"5","3","fixed","20","93","105","purple-53","purple","541","sampling-task","69","630876","0.0-5.0-0.55-0.55","34","pxa9htlw","low"
"5","4","fixed","20","93","107","purple-53","purple","478","sampling-task","70","632356","0.0-5.0-0.56-0.56","34","pxa9htlw","low"
"5","5","fixed","20","93","105","purple-53","purple","502","sampling-task","71","633740","0.0-5.0-0.57-0.57","34","pxa9htlw","low"
"5","6","fixed","20","93","102","purple-53","purple","461","sampling-task","72","635212","0.0-5.0-0.58-0.58","34","pxa9htlw","low"
"5","7","fixed","20","93","91","purple-53","purple","542","sampling-task","73","636708","0.0-5.0-0.59-0.59","34","pxa9htlw","low"
"5","8","fixed","20","93","83","purple-53","purple","509","sampling-task","74","638132","0.0-5.0-0.60-0.60","34","pxa9htlw","low"
"5","9","fixed","20","93","110","purple-53","purple","534","sampling-task","75","639564","0.0-5.0-0.61-0.61","34","pxa9htlw","low"
"5","10","fixed","20","93","126","purple-53","purple","517","sampling-task","76","642532","0.0-5.0-0.62-0.62","34","pxa9htlw","low"
"5","11","fixed","20","93","115","purple-53","purple","477","sampling-task","77","643964","0.0-5.0-0.63-0.63","34","pxa9htlw","low"
"5","12","fixed","20","93","85","purple-53","purple","510","sampling-task","78","646148","0.0-5.0-0.64-0.64","34","pxa9htlw","low"
"5","13","fixed","20","93","87","purple-53","purple","486","sampling-task","79","647548","0.0-5.0-0.65-0.65","34","pxa9htlw","low"
"5","14","fixed","20","93","93","purple-53","purple","765","sampling-task","80","649340","0.0-5.0-0.66-0.66","34","pxa9htlw","low"
"5","15","fixed","20","93","92","purple-53","purple","518","sampling-task","81","651548","0.0-5.0-0.67-0.67","34","pxa9htlw","low"
"5","16","fixed","20","93","121","purple-53","purple","597","sampling-task","82","653068","0.0-5.0-0.68-0.68","34","pxa9htlw","low"
"5","17","fixed","20","93","50","purple-53","purple","557","sampling-task","83","654980","0.0-5.0-0.69-0.69","34","pxa9htlw","low"
"5","18","fixed","20","93","84","purple-53","purple","502","sampling-task","84","656876","0.0-5.0-0.70-0.70","34","pxa9htlw","low"
"5","19","fixed","20","93","58","purple-53","purple","701","sampling-task","85","662300","0.0-5.0-0.71-0.71","34","pxa9htlw","low"
"5","20","fixed","20","93","66","purple-53","purple","717","sampling-task","86","664556","0.0-5.0-0.72-0.72","34","pxa9htlw","low"
"6","1","free","220","57","80","green-187","green","2148","sampling-task","89","700467","0.0-5.0-0.73-0.73","34","pxa9htlw","low"
"6","2","free","220","57","30","green-187","green","486","sampling-task","90","701899","0.0-5.0-0.74-0.74","34","pxa9htlw","low"
"6","3","free","220","57","60","green-187","green","598","sampling-task","91","705435","0.0-5.0-0.75-0.75","34","pxa9htlw","low"
"6","4","free","220","57","78","green-187","green","709","sampling-task","92","707635","0.0-5.0-0.76-0.76","34","pxa9htlw","low"
"6","5","free","220","57","94","green-187","green","813","sampling-task","93","712219","0.0-5.0-0.77-0.77","34","pxa9htlw","low"
"6","6","free","220","57","58","green-187","green","557","sampling-task","94","713859","0.0-5.0-0.78-0.78","34","pxa9htlw","low"
"6","7","free","220","57","78","green-187","green","541","sampling-task","95","715891","0.0-5.0-0.79-0.79","34","pxa9htlw","low"
"6","8","free","220","57","53","green-187","green","470","sampling-task","96","717363","0.0-5.0-0.80-0.80","34","pxa9htlw","low"
"6","9","free","220","57","53","green-187","green","421","sampling-task","97","718707","0.0-5.0-0.81-0.81","34","pxa9htlw","low"
"6","10","free","220","57","99","green-187","green","438","sampling-task","98","720067","0.0-5.0-0.82-0.82","34","pxa9htlw","low"
"6","11","free","220","57","89","green-187","green","485","sampling-task","99","721563","0.0-5.0-0.83-0.83","34","pxa9htlw","low"
"6","12","free","220","57","49","green-187","green","397","sampling-task","100","723123","0.0-5.0-0.84-0.84","34","pxa9htlw","low"
"6","13","free","220","57","71","green-187","green","486","sampling-task","101","724571","0.0-5.0-0.85-0.85","34","pxa9htlw","low"
"6","14","free","220","57","54","green-187","green","542","sampling-task","102","726139","0.0-5.0-0.86-0.86","34","pxa9htlw","low"
"6","15","free","220","57","71","green-187","green","477","sampling-task","103","727611","0.0-5.0-0.87-0.87","34","pxa9htlw","low"
"6","16","free","220","57","58","green-187","green","478","sampling-task","104","728947","0.0-5.0-0.88-0.88","34","pxa9htlw","low"
"6","17","free","220","57","63","green-187","green","451","sampling-task","105","730571","0.0-5.0-0.89-0.89","34","pxa9htlw","low"
"6","18","free","220","57","59","green-187","green","421","sampling-task","106","732019","0.0-5.0-0.90-0.90","34","pxa9htlw","low"
"6","19","free","220","57","24","green-187","green","477","sampling-task","107","733395","0.0-5.0-0.91-0.91","34","pxa9htlw","low"
"6","20","free","220","57","44","green-187","green","462","sampling-task","108","734747","0.0-5.0-0.92-0.92","34","pxa9htlw","low"
"6","21","free","220","57","34","green-187","green","381","sampling-task","109","735987","0.0-5.0-0.93-0.93","34","pxa9htlw","low"
"6","22","free","220","57","57","green-187","green","446","sampling-task","110","737411","0.0-5.0-0.94-0.94","34","pxa9htlw","low"
"6","23","free","220","57","36","green-187","green","421","sampling-task","111","738873","0.0-5.0-0.95-0.95","34","pxa9htlw","low"
"6","24","free","220","57","60","green-187","green","397","sampling-task","112","740209","0.0-5.0-0.96-0.96","34","pxa9htlw","low"
"6","25","free","220","57","56","green-187","green","398","sampling-task","113","741865","0.0-5.0-0.97-0.97","34","pxa9htlw","low"
"6","26","free","220","57","64","green-187","green","469","sampling-task","114","743193","0.0-5.0-0.98-0.98","34","pxa9htlw","low"
"6","27","free","220","57","-8","green-187","green","1830","sampling-task","115","747473","0.0-5.0-0.99-0.99","34","pxa9htlw","low"
"6","28","free","220","57","60","green-187","green","438","sampling-task","116","749049","0.0-5.0-0.100-0.100","34","pxa9htlw","low"
"6","29","free","220","57","77","green-187","green","405","sampling-task","117","750481","0.0-5.0-0.101-0.101","34","pxa9htlw","low"
"6","30","free","220","57","75","green-187","green","381","sampling-task","118","752001","0.0-5.0-0.102-0.102","34","pxa9htlw","low"
"6","31","free","220","57","62","green-187","green","446","sampling-task","119","754729","0.0-5.0-0.103-0.103","34","pxa9htlw","low"
