"round_number","sample_number","sampling_type","nSamples","mean","feedback","stimulus","stimulus_colour","rt","trial_type","trial_index","time_elapsed","internal_node_id","participant","randomID","condition"
"1","1","fixed","5","19","-9","blue-12","blue","2839","sampling-task","6","749161","0.0-5.0-0.0-0.0","56","c9ns7wpk","low"
"1","2","fixed","5","19","14","blue-12","blue","1918","sampling-task","7","771304","0.0-5.0-0.1-0.1","56","c9ns7wpk","low"
"1","3","fixed","5","19","4","blue-12","blue","1102","sampling-task","8","774064","0.0-5.0-0.2-0.2","56","c9ns7wpk","low"
"1","4","fixed","5","19","25","blue-12","blue","839","sampling-task","9","776920","0.0-5.0-0.3-0.3","56","c9ns7wpk","low"
"1","5","fixed","5","19","8","blue-12","blue","1455","sampling-task","10","780888","0.0-5.0-0.4-0.4","56","c9ns7wpk","low"
"2","1","free","220","78","72","red-140","red","2916","sampling-task","13","828216","0.0-5.0-0.5-0.5","56","c9ns7wpk","low"
"2","2","free","220","78","71","red-140","red","598","sampling-task","14","830440","0.0-5.0-0.6-0.6","56","c9ns7wpk","low"
"2","3","free","220","78","80","red-140","red","622","sampling-task","15","835360","0.0-5.0-0.7-0.7","56","c9ns7wpk","low"
"2","4","free","220","78","69","red-140","red","566","sampling-task","16","837552","0.0-5.0-0.8-0.8","56","c9ns7wpk","low"
"2","5","free","220","78","47","red-140","red","1054","sampling-task","17","842520","0.0-5.0-0.9-0.9","56","c9ns7wpk","low"
"2","6","free","220","78","76","red-140","red","550","sampling-task","18","844176","0.0-5.0-0.10-0.10","56","c9ns7wpk","low"
"2","7","free","220","78","100","red-140","red","590","sampling-task","19","846304","0.0-5.0-0.11-0.11","56","c9ns7wpk","low"
"3","1","fixed","10","93","56","orange-189","orange","772","sampling-task","22","879814","0.0-5.0-0.12-0.12","56","c9ns7wpk","low"
"3","2","fixed","10","93","72","orange-189","orange","534","sampling-task","23","881223","0.0-5.0-0.13-0.13","56","c9ns7wpk","low"
"3","3","fixed","10","93","90","orange-189","orange","630","sampling-task","24","882783","0.0-5.0-0.14-0.14","56","c9ns7wpk","low"
"3","4","fixed","10","93","100","orange-189","orange","678","sampling-task","25","884583","0.0-5.0-0.15-0.15","56","c9ns7wpk","low"
"3","5","fixed","10","93","106","orange-189","orange","542","sampling-task","26","886199","0.0-5.0-0.16-0.16","56","c9ns7wpk","low"
"3","6","fixed","10","93","92","orange-189","orange","597","sampling-task","27","889318","0.0-5.0-0.17-0.17","56","c9ns7wpk","low"
"3","7","fixed","10","93","99","orange-189","orange","798","sampling-task","28","891071","0.0-5.0-0.18-0.18","56","c9ns7wpk","low"
"3","8","fixed","10","93","93","orange-189","orange","654","sampling-task","29","893255","0.0-5.0-0.19-0.19","56","c9ns7wpk","low"
"3","9","fixed","10","93","73","orange-189","orange","510","sampling-task","30","894791","0.0-5.0-0.20-0.20","56","c9ns7wpk","low"
"3","10","fixed","10","93","91","orange-189","orange","534","sampling-task","31","896615","0.0-5.0-0.21-0.21","56","c9ns7wpk","low"
"4","1","free","220","34","41","purple-206","purple","2701","sampling-task","34","927823","0.0-5.0-0.22-0.22","56","c9ns7wpk","low"
"4","2","free","220","34","55","purple-206","purple","572","sampling-task","35","929271","0.0-5.0-0.23-0.23","56","c9ns7wpk","low"
"4","3","free","220","34","8","purple-206","purple","470","sampling-task","36","930663","0.0-5.0-0.24-0.24","56","c9ns7wpk","low"
"4","4","free","220","34","40","purple-206","purple","437","sampling-task","37","931958","0.0-5.0-0.25-0.25","56","c9ns7wpk","low"
"4","5","free","220","34","71","purple-206","purple","470","sampling-task","38","933446","0.0-5.0-0.26-0.26","56","c9ns7wpk","low"
"4","6","free","220","34","45","purple-206","purple","526","sampling-task","39","935118","0.0-5.0-0.27-0.27","56","c9ns7wpk","low"
"4","7","free","220","34","47","purple-206","purple","502","sampling-task","40","936607","0.0-5.0-0.28-0.28","56","c9ns7wpk","low"
"4","8","free","220","34","61","purple-206","purple","470","sampling-task","41","938111","0.0-5.0-0.29-0.29","56","c9ns7wpk","low"
"4","9","free","220","34","34","purple-206","purple","478","sampling-task","42","939703","0.0-5.0-0.30-0.30","56","c9ns7wpk","low"
"4","10","free","220","34","29","purple-206","purple","478","sampling-task","43","941351","0.0-5.0-0.31-0.31","56","c9ns7wpk","low"
"5","1","fixed","20","50","44","yellow-77","yellow","765","sampling-task","46","962247","0.0-5.0-0.32-0.32","56","c9ns7wpk","low"
"5","2","fixed","20","50","68","yellow-77","yellow","486","sampling-task","47","963639","0.0-5.0-0.33-0.33","56","c9ns7wpk","low"
"5","3","fixed","20","50","28","yellow-77","yellow","494","sampling-task","48","965151","0.0-5.0-0.34-0.34","56","c9ns7wpk","low"
"5","4","fixed","20","50","48","yellow-77","yellow","485","sampling-task","49","966670","0.0-5.0-0.35-0.35","56","c9ns7wpk","low"
"5","5","fixed","20","50","29","yellow-77","yellow","686","sampling-task","50","968422","0.0-5.0-0.36-0.36","56","c9ns7wpk","low"
"5","6","fixed","20","50","73","yellow-77","yellow","469","sampling-task","51","970046","0.0-5.0-0.37-0.37","56","c9ns7wpk","low"
"5","7","fixed","20","50","33","yellow-77","yellow","478","sampling-task","52","971398","0.0-5.0-0.38-0.38","56","c9ns7wpk","low"
"5","8","fixed","20","50","47","yellow-77","yellow","510","sampling-task","53","972870","0.0-5.0-0.39-0.39","56","c9ns7wpk","low"
"5","9","fixed","20","50","44","yellow-77","yellow","517","sampling-task","54","974438","0.0-5.0-0.40-0.40","56","c9ns7wpk","low"
"5","10","fixed","20","50","57","yellow-77","yellow","518","sampling-task","55","976046","0.0-5.0-0.41-0.41","56","c9ns7wpk","low"
"5","11","fixed","20","50","62","yellow-77","yellow","454","sampling-task","56","977550","0.0-5.0-0.42-0.42","56","c9ns7wpk","low"
"5","12","fixed","20","50","47","yellow-77","yellow","462","sampling-task","57","979054","0.0-5.0-0.43-0.43","56","c9ns7wpk","low"
"5","13","fixed","20","50","16","yellow-77","yellow","469","sampling-task","58","980598","0.0-5.0-0.44-0.44","56","c9ns7wpk","low"
"5","14","fixed","20","50","48","yellow-77","yellow","438","sampling-task","59","982942","0.0-5.0-0.45-0.45","56","c9ns7wpk","low"
"5","15","fixed","20","50","46","yellow-77","yellow","614","sampling-task","60","984606","0.0-5.0-0.46-0.46","56","c9ns7wpk","low"
"5","16","fixed","20","50","93","yellow-77","yellow","486","sampling-task","61","986254","0.0-5.0-0.47-0.47","56","c9ns7wpk","low"
"5","17","fixed","20","50","60","yellow-77","yellow","477","sampling-task","62","987726","0.0-5.0-0.48-0.48","56","c9ns7wpk","low"
"5","18","fixed","20","50","46","yellow-77","yellow","494","sampling-task","63","989142","0.0-5.0-0.49-0.49","56","c9ns7wpk","low"
"5","19","fixed","20","50","72","yellow-77","yellow","614","sampling-task","64","990982","0.0-5.0-0.50-0.50","56","c9ns7wpk","low"
"5","20","fixed","20","50","72","yellow-77","yellow","606","sampling-task","65","992774","0.0-5.0-0.51-0.51","56","c9ns7wpk","low"
"6","1","free","220","115","151","green-76","green","2877","sampling-task","68","1023438","0.0-5.0-0.52-0.52","56","c9ns7wpk","low"
"6","2","free","220","115","108","green-76","green","429","sampling-task","69","1025014","0.0-5.0-0.53-0.53","56","c9ns7wpk","low"
"6","3","free","220","115","125","green-76","green","453","sampling-task","70","1026406","0.0-5.0-0.54-0.54","56","c9ns7wpk","low"
"6","4","free","220","115","118","green-76","green","446","sampling-task","71","1027757","0.0-5.0-0.55-0.55","56","c9ns7wpk","low"
"6","5","free","220","115","110","green-76","green","478","sampling-task","72","1029317","0.0-5.0-0.56-0.56","56","c9ns7wpk","low"
"6","6","free","220","115","95","green-76","green","446","sampling-task","73","1031005","0.0-5.0-0.57-0.57","56","c9ns7wpk","low"
"6","7","free","220","115","66","green-76","green","478","sampling-task","74","1032677","0.0-5.0-0.58-0.58","56","c9ns7wpk","low"
"6","8","free","220","115","96","green-76","green","462","sampling-task","75","1034869","0.0-5.0-0.59-0.59","56","c9ns7wpk","low"
"6","9","free","220","115","105","green-76","green","438","sampling-task","76","1036349","0.0-5.0-0.60-0.60","56","c9ns7wpk","low"
"6","10","free","220","115","84","green-76","green","462","sampling-task","77","1037909","0.0-5.0-0.61-0.61","56","c9ns7wpk","low"
"6","11","free","220","115","115","green-76","green","534","sampling-task","78","1039541","0.0-5.0-0.62-0.62","56","c9ns7wpk","low"
"6","12","free","220","115","120","green-76","green","526","sampling-task","79","1041117","0.0-5.0-0.63-0.63","56","c9ns7wpk","low"
"6","13","free","220","115","164","green-76","green","446","sampling-task","80","1042677","0.0-5.0-0.64-0.64","56","c9ns7wpk","low"
"6","14","free","220","115","102","green-76","green","550","sampling-task","81","1044149","0.0-5.0-0.65-0.65","56","c9ns7wpk","low"
"6","15","free","220","115","74","green-76","green","454","sampling-task","82","1045797","0.0-5.0-0.66-0.66","56","c9ns7wpk","low"
"6","16","free","220","115","142","green-76","green","446","sampling-task","83","1047277","0.0-5.0-0.67-0.67","56","c9ns7wpk","low"
"6","17","free","220","115","109","green-76","green","390","sampling-task","84","1049013","0.0-5.0-0.68-0.68","56","c9ns7wpk","low"
