"round_number","sample_number","sampling_type","nSamples","mean","feedback","stimulus","stimulus_colour","rt","trial_type","trial_index","time_elapsed","internal_node_id","participant","randomID","condition"
"1","1","fixed","10","55","53","blue-97","blue","5806","sampling-task","6","388847","0.0-5.0-0.0-0.0","15","a2598rlv","high"
"1","2","fixed","10","55","66","blue-56","blue","3910","sampling-task","7","395135","0.0-5.0-0.1-0.1","15","a2598rlv","high"
"1","3","fixed","10","55","41","blue-204","blue","4310","sampling-task","8","401343","0.0-5.0-0.2-0.2","15","a2598rlv","high"
"1","4","fixed","10","55","59","blue-101","blue","1478","sampling-task","9","406079","0.0-5.0-0.3-0.3","15","a2598rlv","high"
"1","5","fixed","10","55","21","blue-17","blue","1246","sampling-task","10","408766","0.0-5.0-0.4-0.4","15","a2598rlv","high"
"1","6","fixed","10","55","43","blue-126","blue","918","sampling-task","11","411263","0.0-5.0-0.5-0.5","15","a2598rlv","high"
"1","7","fixed","10","55","43","blue-122","blue","1054","sampling-task","12","413518","0.0-5.0-0.6-0.6","15","a2598rlv","high"
"1","8","fixed","10","55","34","blue-19","blue","990","sampling-task","13","415999","0.0-5.0-0.7-0.7","15","a2598rlv","high"
"1","9","fixed","10","55","24","blue-59","blue","1014","sampling-task","14","418686","0.0-5.0-0.8-0.8","15","a2598rlv","high"
"1","10","fixed","10","55","34","blue-126","blue","1126","sampling-task","15","421150","0.0-5.0-0.9-0.9","15","a2598rlv","high"
"2","1","free","220","92","55","purple-133","purple","7333","sampling-task","18","472598","0.0-5.0-0.10-0.10","15","a2598rlv","high"
"2","2","free","220","92","71","purple-23","purple","2270","sampling-task","19","477646","0.0-5.0-0.11-0.11","15","a2598rlv","high"
"2","3","free","220","92","100","purple-208","purple","1085","sampling-task","20","482941","0.0-5.0-0.12-0.12","15","a2598rlv","high"
"2","4","free","220","92","91","purple-186","purple","1286","sampling-task","21","485581","0.0-5.0-0.13-0.13","15","a2598rlv","high"
"2","5","free","220","92","74","purple-195","purple","806","sampling-task","22","487485","0.0-5.0-0.14-0.14","15","a2598rlv","high"
"2","6","free","220","92","94","purple-152","purple","934","sampling-task","23","489381","0.0-5.0-0.15-0.15","15","a2598rlv","high"
"2","7","free","220","92","88","purple-149","purple","919","sampling-task","24","491470","0.0-5.0-0.16-0.16","15","a2598rlv","high"
"2","8","free","220","92","94","purple-10","purple","870","sampling-task","25","493421","0.0-5.0-0.17-0.17","15","a2598rlv","high"
"2","9","free","220","92","81","purple-103","purple","774","sampling-task","26","495197","0.0-5.0-0.18-0.18","15","a2598rlv","high"
"2","10","free","220","92","96","purple-149","purple","710","sampling-task","27","497181","0.0-5.0-0.19-0.19","15","a2598rlv","high"
"2","11","free","220","92","98","purple-125","purple","703","sampling-task","28","499045","0.0-5.0-0.20-0.20","15","a2598rlv","high"
"2","12","free","220","92","90","purple-7","purple","647","sampling-task","29","500926","0.0-5.0-0.21-0.21","15","a2598rlv","high"
"2","13","free","220","92","42","purple-21","purple","694","sampling-task","30","502781","0.0-5.0-0.22-0.22","15","a2598rlv","high"
"2","14","free","220","92","87","purple-11","purple","687","sampling-task","31","505213","0.0-5.0-0.23-0.23","15","a2598rlv","high"
"2","15","free","220","92","100","purple-32","purple","719","sampling-task","32","510485","0.0-5.0-0.24-0.24","15","a2598rlv","high"
"2","16","free","220","92","71","purple-194","purple","814","sampling-task","33","512373","0.0-5.0-0.25-0.25","15","a2598rlv","high"
"2","17","free","220","92","77","purple-203","purple","822","sampling-task","34","514422","0.0-5.0-0.26-0.26","15","a2598rlv","high"
"2","18","free","220","92","83","purple-93","purple","878","sampling-task","35","517029","0.0-5.0-0.27-0.27","15","a2598rlv","high"
"2","19","free","220","92","68","purple-100","purple","830","sampling-task","36","519077","0.0-5.0-0.28-0.28","15","a2598rlv","high"
"2","20","free","220","92","100","purple-32","purple","814","sampling-task","37","521789","0.0-5.0-0.29-0.29","15","a2598rlv","high"
"3","1","fixed","5","14","28","red-105","red","12860","sampling-task","40","569845","0.0-5.0-0.30-0.30","15","a2598rlv","high"
"3","2","fixed","5","14","8","red-3","red","2061","sampling-task","41","573309","0.0-5.0-0.31-0.31","15","a2598rlv","high"
"3","3","fixed","5","14","-25","red-151","red","2294","sampling-task","42","577757","0.0-5.0-0.32-0.32","15","a2598rlv","high"
"3","4","fixed","5","14","28","red-96","red","1021","sampling-task","43","581405","0.0-5.0-0.33-0.33","15","a2598rlv","high"
"3","5","fixed","5","14","8","red-197","red","910","sampling-task","44","583781","0.0-5.0-0.34-0.34","15","a2598rlv","high"
"4","1","free","220","30","43","green-45","green","4157","sampling-task","47","635470","0.0-5.0-0.35-0.35","15","a2598rlv","high"
"4","2","free","220","30","48","green-164","green","2541","sampling-task","48","639534","0.0-5.0-0.36-0.36","15","a2598rlv","high"
"4","3","free","220","30","34","green-216","green","1054","sampling-task","49","641574","0.0-5.0-0.37-0.37","15","a2598rlv","high"
"4","4","free","220","30","14","green-101","green","942","sampling-task","50","643942","0.0-5.0-0.38-0.38","15","a2598rlv","high"
"4","5","free","220","30","28","green-31","green","622","sampling-task","51","645918","0.0-5.0-0.39-0.39","15","a2598rlv","high"
"4","6","free","220","30","23","green-205","green","702","sampling-task","52","647966","0.0-5.0-0.40-0.40","15","a2598rlv","high"
"4","7","free","220","30","43","green-187","green","1358","sampling-task","53","650790","0.0-5.0-0.41-0.41","15","a2598rlv","high"
"4","8","free","220","30","0","green-90","green","678","sampling-task","54","652806","0.0-5.0-0.42-0.42","15","a2598rlv","high"
"4","9","free","220","30","17","green-102","green","662","sampling-task","55","654406","0.0-5.0-0.43-0.43","15","a2598rlv","high"
"4","10","free","220","30","48","green-199","green","590","sampling-task","56","656510","0.0-5.0-0.44-0.44","15","a2598rlv","high"
"4","11","free","220","30","4","green-86","green","622","sampling-task","57","658142","0.0-5.0-0.45-0.45","15","a2598rlv","high"
"4","12","free","220","30","17","green-143","green","662","sampling-task","58","659838","0.0-5.0-0.46-0.46","15","a2598rlv","high"
"4","13","free","220","30","41","green-218","green","509","sampling-task","59","661861","0.0-5.0-0.47-0.47","15","a2598rlv","high"
"4","14","free","220","30","26","green-25","green","526","sampling-task","60","663717","0.0-5.0-0.48-0.48","15","a2598rlv","high"
"4","15","free","220","30","72","green-36","green","518","sampling-task","61","666653","0.0-5.0-0.49-0.49","15","a2598rlv","high"
"4","16","free","220","30","30","green-73","green","566","sampling-task","62","668933","0.0-5.0-0.50-0.50","15","a2598rlv","high"
"4","17","free","220","30","43","green-95","green","526","sampling-task","63","670909","0.0-5.0-0.51-0.51","15","a2598rlv","high"
"4","18","free","220","30","-7","green-105","green","598","sampling-task","64","672693","0.0-5.0-0.52-0.52","15","a2598rlv","high"
"4","19","free","220","30","47","green-59","green","398","sampling-task","65","676293","0.0-5.0-0.53-0.53","15","a2598rlv","high"
"5","1","fixed","20","113","144","orange-19","orange","4533","sampling-task","68","703397","0.0-5.0-0.54-0.54","15","a2598rlv","high"
"5","2","fixed","20","113","130","orange-171","orange","798","sampling-task","69","705501","0.0-5.0-0.55-0.55","15","a2598rlv","high"
"5","3","fixed","20","113","125","orange-11","orange","846","sampling-task","70","707437","0.0-5.0-0.56-0.56","15","a2598rlv","high"
"5","4","fixed","20","113","132","orange-144","orange","942","sampling-task","71","710789","0.0-5.0-0.57-0.57","15","a2598rlv","high"
"5","5","fixed","20","113","107","orange-160","orange","846","sampling-task","72","713045","0.0-5.0-0.58-0.58","15","a2598rlv","high"
"5","6","fixed","20","113","114","orange-92","orange","1086","sampling-task","73","716485","0.0-5.0-0.59-0.59","15","a2598rlv","high"
"5","7","fixed","20","113","110","orange-3","orange","886","sampling-task","74","718469","0.0-5.0-0.60-0.60","15","a2598rlv","high"
"5","8","fixed","20","113","98","orange-131","orange","790","sampling-task","75","720197","0.0-5.0-0.61-0.61","15","a2598rlv","high"
"5","9","fixed","20","113","111","orange-176","orange","750","sampling-task","76","722029","0.0-5.0-0.62-0.62","15","a2598rlv","high"
"5","10","fixed","20","113","147","orange-78","orange","702","sampling-task","77","724445","0.0-5.0-0.63-0.63","15","a2598rlv","high"
"5","11","fixed","20","113","132","orange-167","orange","3078","sampling-task","78","729317","0.0-5.0-0.64-0.64","15","a2598rlv","high"
"5","12","fixed","20","113","87","orange-136","orange","806","sampling-task","79","732685","0.0-5.0-0.65-0.65","15","a2598rlv","high"
"5","13","fixed","20","113","140","orange-2","orange","886","sampling-task","80","734965","0.0-5.0-0.66-0.66","15","a2598rlv","high"
"5","14","fixed","20","113","131","orange-85","orange","830","sampling-task","81","736797","0.0-5.0-0.67-0.67","15","a2598rlv","high"
"5","15","fixed","20","113","127","orange-182","orange","662","sampling-task","82","738829","0.0-5.0-0.68-0.68","15","a2598rlv","high"
"5","16","fixed","20","113","112","orange-12","orange","702","sampling-task","83","740917","0.0-5.0-0.69-0.69","15","a2598rlv","high"
"5","17","fixed","20","113","121","orange-120","orange","630","sampling-task","84","744029","0.0-5.0-0.70-0.70","15","a2598rlv","high"
"5","18","fixed","20","113","88","orange-109","orange","662","sampling-task","85","746773","0.0-5.0-0.71-0.71","15","a2598rlv","high"
"5","19","fixed","20","113","132","orange-71","orange","565","sampling-task","86","748477","0.0-5.0-0.72-0.72","15","a2598rlv","high"
"5","20","fixed","20","113","116","orange-114","orange","614","sampling-task","87","750533","0.0-5.0-0.73-0.73","15","a2598rlv","high"
"6","1","free","220","71","101","yellow-166","yellow","3221","sampling-task","90","790637","0.0-5.0-0.74-0.74","15","a2598rlv","high"
"6","2","free","220","71","67","yellow-148","yellow","1078","sampling-task","91","793156","0.0-5.0-0.75-0.75","15","a2598rlv","high"
"6","3","free","220","71","98","yellow-103","yellow","566","sampling-task","92","795228","0.0-5.0-0.76-0.76","15","a2598rlv","high"
"6","4","free","220","71","68","yellow-8","yellow","645","sampling-task","93","797204","0.0-5.0-0.77-0.77","15","a2598rlv","high"
"6","5","free","220","71","24","yellow-29","yellow","686","sampling-task","94","799140","0.0-5.0-0.78-0.78","15","a2598rlv","high"
"6","6","free","220","71","95","yellow-41","yellow","694","sampling-task","95","801196","0.0-5.0-0.79-0.79","15","a2598rlv","high"
"6","7","free","220","71","55","yellow-114","yellow","710","sampling-task","96","803108","0.0-5.0-0.80-0.80","15","a2598rlv","high"
"6","8","free","220","71","55","yellow-185","yellow","934","sampling-task","97","805964","0.0-5.0-0.81-0.81","15","a2598rlv","high"
"6","9","free","220","71","80","yellow-189","yellow","4238","sampling-task","98","811956","0.0-5.0-0.82-0.82","15","a2598rlv","high"
"6","10","free","220","71","86","yellow-47","yellow","830","sampling-task","99","815004","0.0-5.0-0.83-0.83","15","a2598rlv","high"
"6","11","free","220","71","65","yellow-107","yellow","902","sampling-task","100","817108","0.0-5.0-0.84-0.84","15","a2598rlv","high"
"6","12","free","220","71","72","yellow-38","yellow","1078","sampling-task","101","819460","0.0-5.0-0.85-0.85","15","a2598rlv","high"
"6","13","free","220","71","80","yellow-58","yellow","702","sampling-task","102","821612","0.0-5.0-0.86-0.86","15","a2598rlv","high"
"6","14","free","220","71","85","yellow-201","yellow","606","sampling-task","103","823452","0.0-5.0-0.87-0.87","15","a2598rlv","high"
"6","15","free","220","71","93","yellow-217","yellow","678","sampling-task","104","825708","0.0-5.0-0.88-0.88","15","a2598rlv","high"
"6","16","free","220","71","81","yellow-153","yellow","630","sampling-task","105","827492","0.0-5.0-0.89-0.89","15","a2598rlv","high"
"6","17","free","220","71","94","yellow-14","yellow","558","sampling-task","106","830508","0.0-5.0-0.90-0.90","15","a2598rlv","high"
"6","18","free","220","71","57","yellow-70","yellow","510","sampling-task","107","832788","0.0-5.0-0.91-0.91","15","a2598rlv","high"
"6","19","free","220","71","84","yellow-17","yellow","718","sampling-task","108","834844","0.0-5.0-0.92-0.92","15","a2598rlv","high"
"6","20","free","220","71","62","yellow-213","yellow","894","sampling-task","109","837012","0.0-5.0-0.93-0.93","15","a2598rlv","high"
"6","21","free","220","71","109","yellow-106","yellow","590","sampling-task","110","840757","0.0-5.0-0.94-0.94","15","a2598rlv","high"
"6","22","free","220","71","42","yellow-26","yellow","925","sampling-task","111","842837","0.0-5.0-0.95-0.95","15","a2598rlv","high"
"6","23","free","220","71","50","yellow-196","yellow","1654","sampling-task","112","846189","0.0-5.0-0.96-0.96","15","a2598rlv","high"
"6","24","free","220","71","29","yellow-98","yellow","726","sampling-task","113","848053","0.0-5.0-0.97-0.97","15","a2598rlv","high"
"6","25","free","220","71","84","yellow-110","yellow","725","sampling-task","114","849997","0.0-5.0-0.98-0.98","15","a2598rlv","high"
"6","26","free","220","71","74","yellow-209","yellow","790","sampling-task","115","852653","0.0-5.0-0.99-0.99","15","a2598rlv","high"
"6","27","free","220","71","75","yellow-7","yellow","629","sampling-task","116","854373","0.0-5.0-0.100-0.100","15","a2598rlv","high"
"6","28","free","220","71","60","yellow-134","yellow","581","sampling-task","117","856213","0.0-5.0-0.101-0.101","15","a2598rlv","high"
"6","29","free","220","71","73","yellow-47","yellow","781","sampling-task","118","858317","0.0-5.0-0.102-0.102","15","a2598rlv","high"
"6","30","free","220","71","61","yellow-214","yellow","726","sampling-task","119","859909","0.0-5.0-0.103-0.103","15","a2598rlv","high"
"6","31","free","220","71","71","yellow-129","yellow","862","sampling-task","120","862181","0.0-5.0-0.104-0.104","15","a2598rlv","high"
"6","32","free","220","71","28","yellow-19","yellow","821","sampling-task","121","864901","0.0-5.0-0.105-0.105","15","a2598rlv","high"
"6","33","free","220","71","77","yellow-23","yellow","589","sampling-task","122","867773","0.0-5.0-0.106-0.106","15","a2598rlv","high"
"6","34","free","220","71","74","yellow-8","yellow","479","sampling-task","123","869285","0.0-5.0-0.107-0.107","15","a2598rlv","high"
"6","35","free","220","71","83","yellow-205","yellow","677","sampling-task","124","870869","0.0-5.0-0.108-0.108","15","a2598rlv","high"
"6","36","free","220","71","72","yellow-177","yellow","710","sampling-task","125","872725","0.0-5.0-0.109-0.109","15","a2598rlv","high"
"6","37","free","220","71","64","yellow-99","yellow","518","sampling-task","126","874829","0.0-5.0-0.110-0.110","15","a2598rlv","high"
"6","38","free","220","71","64","yellow-215","yellow","869","sampling-task","127","876877","0.0-5.0-0.111-0.111","15","a2598rlv","high"
"6","39","free","220","71","145","yellow-187","yellow","838","sampling-task","128","881005","0.0-5.0-0.112-0.112","15","a2598rlv","high"
