"round_number","sample_number","sampling_type","nSamples","mean","feedback","stimulus","stimulus_colour","rt","trial_type","trial_index","time_elapsed","internal_node_id","participant","randomID","condition"
"1","1","fixed","5","54","68","yellow-159","yellow","13029","sampling-task","9","565835","0.0-5.0-0.0-0.0","8","1u5e2dga","low"
"1","2","fixed","5","54","82","yellow-159","yellow","2374","sampling-task","10","572730","0.0-5.0-0.1-0.1","8","1u5e2dga","low"
"1","3","fixed","5","54","44","yellow-159","yellow","2894","sampling-task","11","579978","0.0-5.0-0.2-0.2","8","1u5e2dga","low"
"1","4","fixed","5","54","63","yellow-159","yellow","1062","sampling-task","12","584779","0.0-5.0-0.3-0.3","8","1u5e2dga","low"
"1","5","fixed","5","54","11","yellow-159","yellow","3798","sampling-task","13","591219","0.0-5.0-0.4-0.4","8","1u5e2dga","low"
"2","1","free","220","118","157","red-156","red","1948","sampling-task","16","641464","0.0-5.0-0.5-0.5","8","1u5e2dga","low"
"2","2","free","220","118","90","red-156","red","910","sampling-task","17","643824","0.0-5.0-0.6-0.6","8","1u5e2dga","low"
"2","3","free","220","118","137","red-156","red","974","sampling-task","18","646392","0.0-5.0-0.7-0.7","8","1u5e2dga","low"
"2","4","free","220","118","116","red-156","red","926","sampling-task","19","648752","0.0-5.0-0.8-0.8","8","1u5e2dga","low"
"2","5","free","220","118","110","red-156","red","918","sampling-task","20","651016","0.0-5.0-0.9-0.9","8","1u5e2dga","low"
"2","6","free","220","118","75","red-156","red","814","sampling-task","21","653232","0.0-5.0-0.10-0.10","8","1u5e2dga","low"
"2","7","free","220","118","123","red-156","red","790","sampling-task","22","655264","0.0-5.0-0.11-0.11","8","1u5e2dga","low"
"2","8","free","220","118","120","red-156","red","1022","sampling-task","23","657872","0.0-5.0-0.12-0.12","8","1u5e2dga","low"
"2","9","free","220","118","149","red-156","red","622","sampling-task","24","660200","0.0-5.0-0.13-0.13","8","1u5e2dga","low"
"3","1","fixed","10","75","51","green-125","green","1020","sampling-task","27","695573","0.0-5.0-0.14-0.14","8","1u5e2dga","low"
"3","2","fixed","10","75","67","green-125","green","646","sampling-task","28","697653","0.0-5.0-0.15-0.15","8","1u5e2dga","low"
"3","3","fixed","10","75","106","green-125","green","934","sampling-task","29","699821","0.0-5.0-0.16-0.16","8","1u5e2dga","low"
"3","4","fixed","10","75","44","green-125","green","893","sampling-task","30","702045","0.0-5.0-0.17-0.17","8","1u5e2dga","low"
"3","5","fixed","10","75","69","green-125","green","742","sampling-task","31","704045","0.0-5.0-0.18-0.18","8","1u5e2dga","low"
"3","6","fixed","10","75","49","green-125","green","789","sampling-task","32","708589","0.0-5.0-0.19-0.19","8","1u5e2dga","low"
"3","7","fixed","10","75","81","green-125","green","590","sampling-task","33","710421","0.0-5.0-0.20-0.20","8","1u5e2dga","low"
"3","8","fixed","10","75","76","green-125","green","678","sampling-task","34","712301","0.0-5.0-0.21-0.21","8","1u5e2dga","low"
"3","9","fixed","10","75","88","green-125","green","637","sampling-task","35","714165","0.0-5.0-0.22-0.22","8","1u5e2dga","low"
"3","10","fixed","10","75","81","green-125","green","686","sampling-task","36","716013","0.0-5.0-0.23-0.23","8","1u5e2dga","low"
"4","1","free","220","19","33","blue-84","blue","1068","sampling-task","39","744195","0.0-5.0-0.24-0.24","8","1u5e2dga","low"
"4","2","free","220","19","23","blue-84","blue","663","sampling-task","40","746091","0.0-5.0-0.25-0.25","8","1u5e2dga","low"
"4","3","free","220","19","37","blue-84","blue","615","sampling-task","41","747723","0.0-5.0-0.26-0.26","8","1u5e2dga","low"
"4","4","free","220","19","51","blue-84","blue","709","sampling-task","42","749555","0.0-5.0-0.27-0.27","8","1u5e2dga","low"
"4","5","free","220","19","26","blue-84","blue","1047","sampling-task","43","751844","0.0-5.0-0.28-0.28","8","1u5e2dga","low"
"4","6","free","220","19","32","blue-84","blue","574","sampling-task","44","753803","0.0-5.0-0.29-0.29","8","1u5e2dga","low"
"4","7","free","220","19","20","blue-84","blue","606","sampling-task","45","755691","0.0-5.0-0.30-0.30","8","1u5e2dga","low"
"4","8","free","220","19","-12","blue-84","blue","615","sampling-task","46","757715","0.0-5.0-0.31-0.31","8","1u5e2dga","low"
"4","9","free","220","19","-14","blue-84","blue","662","sampling-task","47","759596","0.0-5.0-0.32-0.32","8","1u5e2dga","low"
"4","10","free","220","19","11","blue-84","blue","597","sampling-task","48","761739","0.0-5.0-0.33-0.33","8","1u5e2dga","low"
"4","11","free","220","19","12","blue-84","blue","589","sampling-task","49","763507","0.0-5.0-0.34-0.34","8","1u5e2dga","low"
"4","12","free","220","19","49","blue-84","blue","591","sampling-task","50","765403","0.0-5.0-0.35-0.35","8","1u5e2dga","low"
"4","13","free","220","19","4","blue-84","blue","582","sampling-task","51","767683","0.0-5.0-0.36-0.36","8","1u5e2dga","low"
"5","1","fixed","20","97","105","purple-136","purple","1269","sampling-task","54","788707","0.0-5.0-0.37-0.37","8","1u5e2dga","low"
"5","2","fixed","20","97","94","purple-136","purple","727","sampling-task","55","790587","0.0-5.0-0.38-0.38","8","1u5e2dga","low"
"5","3","fixed","20","97","99","purple-136","purple","542","sampling-task","56","792155","0.0-5.0-0.39-0.39","8","1u5e2dga","low"
"5","4","fixed","20","97","119","purple-136","purple","534","sampling-task","57","793987","0.0-5.0-0.40-0.40","8","1u5e2dga","low"
"5","5","fixed","20","97","110","purple-136","purple","718","sampling-task","58","795651","0.0-5.0-0.41-0.41","8","1u5e2dga","low"
"5","6","fixed","20","97","136","purple-136","purple","518","sampling-task","59","797587","0.0-5.0-0.42-0.42","8","1u5e2dga","low"
"5","7","fixed","20","97","94","purple-136","purple","534","sampling-task","60","799027","0.0-5.0-0.43-0.43","8","1u5e2dga","low"
"5","8","fixed","20","97","88","purple-136","purple","558","sampling-task","61","800731","0.0-5.0-0.44-0.44","8","1u5e2dga","low"
"5","9","fixed","20","97","89","purple-136","purple","462","sampling-task","62","802091","0.0-5.0-0.45-0.45","8","1u5e2dga","low"
"5","10","fixed","20","97","125","purple-136","purple","542","sampling-task","63","804081","0.0-5.0-0.46-0.46","8","1u5e2dga","low"
"5","11","fixed","20","97","81","purple-136","purple","478","sampling-task","64","805465","0.0-5.0-0.47-0.47","8","1u5e2dga","low"
"5","12","fixed","20","97","91","purple-136","purple","542","sampling-task","65","807017","0.0-5.0-0.48-0.48","8","1u5e2dga","low"
"5","13","fixed","20","97","87","purple-136","purple","542","sampling-task","66","808857","0.0-5.0-0.49-0.49","8","1u5e2dga","low"
"5","14","fixed","20","97","79","purple-136","purple","606","sampling-task","67","810465","0.0-5.0-0.50-0.50","8","1u5e2dga","low"
"5","15","fixed","20","97","86","purple-136","purple","677","sampling-task","68","812089","0.0-5.0-0.51-0.51","8","1u5e2dga","low"
"5","16","fixed","20","97","89","purple-136","purple","566","sampling-task","69","813593","0.0-5.0-0.52-0.52","8","1u5e2dga","low"
"5","17","fixed","20","97","76","purple-136","purple","494","sampling-task","70","814985","0.0-5.0-0.53-0.53","8","1u5e2dga","low"
"5","18","fixed","20","97","105","purple-136","purple","478","sampling-task","71","816345","0.0-5.0-0.54-0.54","8","1u5e2dga","low"
"5","19","fixed","20","97","88","purple-136","purple","574","sampling-task","72","817801","0.0-5.0-0.55-0.55","8","1u5e2dga","low"
"5","20","fixed","20","97","88","purple-136","purple","518","sampling-task","73","819273","0.0-5.0-0.56-0.56","8","1u5e2dga","low"
"6","1","free","220","30","6","orange-130","orange","1101","sampling-task","76","843161","0.0-5.0-0.57-0.57","8","1u5e2dga","low"
"6","2","free","220","30","25","orange-130","orange","550","sampling-task","77","844689","0.0-5.0-0.58-0.58","8","1u5e2dga","low"
"6","3","free","220","30","45","orange-130","orange","494","sampling-task","78","846289","0.0-5.0-0.59-0.59","8","1u5e2dga","low"
"6","4","free","220","30","21","orange-130","orange","517","sampling-task","79","847737","0.0-5.0-0.60-0.60","8","1u5e2dga","low"
"6","5","free","220","30","70","orange-130","orange","510","sampling-task","80","849161","0.0-5.0-0.61-0.61","8","1u5e2dga","low"
"6","6","free","220","30","19","orange-130","orange","502","sampling-task","81","850625","0.0-5.0-0.62-0.62","8","1u5e2dga","low"
"6","7","free","220","30","13","orange-130","orange","485","sampling-task","82","852385","0.0-5.0-0.63-0.63","8","1u5e2dga","low"
"6","8","free","220","30","47","orange-130","orange","462","sampling-task","83","853833","0.0-5.0-0.64-0.64","8","1u5e2dga","low"
"6","9","free","220","30","6","orange-130","orange","485","sampling-task","84","855417","0.0-5.0-0.65-0.65","8","1u5e2dga","low"
