"round_number","sample_number","sampling_type","nSamples","mean","feedback","stimulus","stimulus_colour","rt","trial_type","trial_index","time_elapsed","internal_node_id","participant","randomID","condition"
"1","1","fixed","10","17","11","purple-61","purple","5251","sampling-task","6","291483","0.0-5.0-0.0-0.0","19","6tbzvzg5","low"
"1","2","fixed","10","17","22","purple-61","purple","1821","sampling-task","7","295579","0.0-5.0-0.1-0.1","19","6tbzvzg5","low"
"1","3","fixed","10","17","21","purple-61","purple","1102","sampling-task","8","299091","0.0-5.0-0.2-0.2","19","6tbzvzg5","low"
"1","4","fixed","10","17","27","purple-61","purple","1894","sampling-task","9","303379","0.0-5.0-0.3-0.3","19","6tbzvzg5","low"
"1","5","fixed","10","17","-4","purple-61","purple","2390","sampling-task","10","307491","0.0-5.0-0.4-0.4","19","6tbzvzg5","low"
"1","6","fixed","10","17","-10","purple-61","purple","1462","sampling-task","11","310739","0.0-5.0-0.5-0.5","19","6tbzvzg5","low"
"1","7","fixed","10","17","38","purple-61","purple","1902","sampling-task","12","316083","0.0-5.0-0.6-0.6","19","6tbzvzg5","low"
"1","8","fixed","10","17","12","purple-61","purple","1582","sampling-task","13","319203","0.0-5.0-0.7-0.7","19","6tbzvzg5","low"
"1","9","fixed","10","17","44","purple-61","purple","1622","sampling-task","14","323051","0.0-5.0-0.8-0.8","19","6tbzvzg5","low"
"1","10","fixed","10","17","-20","purple-61","purple","1086","sampling-task","15","325890","0.0-5.0-0.9-0.9","19","6tbzvzg5","low"
"2","1","free","220","35","-2","green-184","green","3197","sampling-task","18","366914","0.0-5.0-0.10-0.10","19","6tbzvzg5","low"
"2","2","free","220","35","24","green-184","green","647","sampling-task","19","368674","0.0-5.0-0.11-0.11","19","6tbzvzg5","low"
"2","3","free","220","35","28","green-184","green","647","sampling-task","20","370514","0.0-5.0-0.12-0.12","19","6tbzvzg5","low"
"2","4","free","220","35","48","green-184","green","567","sampling-task","21","372210","0.0-5.0-0.13-0.13","19","6tbzvzg5","low"
"2","5","free","220","35","39","green-184","green","598","sampling-task","22","373986","0.0-5.0-0.14-0.14","19","6tbzvzg5","low"
"2","6","free","220","35","-5","green-184","green","543","sampling-task","23","375626","0.0-5.0-0.15-0.15","19","6tbzvzg5","low"
"2","7","free","220","35","50","green-184","green","503","sampling-task","24","377234","0.0-5.0-0.16-0.16","19","6tbzvzg5","low"
"2","8","free","220","35","18","green-184","green","510","sampling-task","25","378890","0.0-5.0-0.17-0.17","19","6tbzvzg5","low"
"2","9","free","220","35","20","green-184","green","670","sampling-task","26","380562","0.0-5.0-0.18-0.18","19","6tbzvzg5","low"
"2","10","free","220","35","25","green-184","green","519","sampling-task","27","382002","0.0-5.0-0.19-0.19","19","6tbzvzg5","low"
"2","11","free","220","35","33","green-184","green","638","sampling-task","28","384322","0.0-5.0-0.20-0.20","19","6tbzvzg5","low"
"2","12","free","220","35","30","green-184","green","726","sampling-task","29","386026","0.0-5.0-0.21-0.21","19","6tbzvzg5","low"
"2","13","free","220","35","13","green-184","green","486","sampling-task","30","387490","0.0-5.0-0.22-0.22","19","6tbzvzg5","low"
"2","14","free","220","35","45","green-184","green","462","sampling-task","31","389098","0.0-5.0-0.23-0.23","19","6tbzvzg5","low"
"2","15","free","220","35","51","green-184","green","518","sampling-task","32","390570","0.0-5.0-0.24-0.24","19","6tbzvzg5","low"
"2","16","free","220","35","33","green-184","green","486","sampling-task","33","391962","0.0-5.0-0.25-0.25","19","6tbzvzg5","low"
"2","17","free","220","35","30","green-184","green","462","sampling-task","34","393314","0.0-5.0-0.26-0.26","19","6tbzvzg5","low"
"2","18","free","220","35","30","green-184","green","430","sampling-task","35","394674","0.0-5.0-0.27-0.27","19","6tbzvzg5","low"
"2","19","free","220","35","35","green-184","green","486","sampling-task","36","396282","0.0-5.0-0.28-0.28","19","6tbzvzg5","low"
"2","20","free","220","35","33","green-184","green","550","sampling-task","37","397866","0.0-5.0-0.29-0.29","19","6tbzvzg5","low"
"2","21","free","220","35","64","green-184","green","534","sampling-task","38","399330","0.0-5.0-0.30-0.30","19","6tbzvzg5","low"
"2","22","free","220","35","53","green-184","green","462","sampling-task","39","401546","0.0-5.0-0.31-0.31","19","6tbzvzg5","low"
"3","1","fixed","5","99","122","red-135","red","2732","sampling-task","42","428370","0.0-5.0-0.32-0.32","19","6tbzvzg5","low"
"3","2","fixed","5","99","102","red-135","red","550","sampling-task","43","429986","0.0-5.0-0.33-0.33","19","6tbzvzg5","low"
"3","3","fixed","5","99","90","red-135","red","646","sampling-task","44","431778","0.0-5.0-0.34-0.34","19","6tbzvzg5","low"
"3","4","fixed","5","99","91","red-135","red","678","sampling-task","45","433490","0.0-5.0-0.35-0.35","19","6tbzvzg5","low"
"3","5","fixed","5","99","93","red-135","red","750","sampling-task","46","435506","0.0-5.0-0.36-0.36","19","6tbzvzg5","low"
"4","1","free","220","51","54","blue-160","blue","2179","sampling-task","49","462241","0.0-5.0-0.37-0.37","19","6tbzvzg5","low"
"4","2","free","220","51","38","blue-160","blue","598","sampling-task","50","463849","0.0-5.0-0.38-0.38","19","6tbzvzg5","low"
"4","3","free","220","51","61","blue-160","blue","542","sampling-task","51","465321","0.0-5.0-0.39-0.39","19","6tbzvzg5","low"
"4","4","free","220","51","12","blue-160","blue","534","sampling-task","52","467321","0.0-5.0-0.40-0.40","19","6tbzvzg5","low"
"4","5","free","220","51","38","blue-160","blue","702","sampling-task","53","469473","0.0-5.0-0.41-0.41","19","6tbzvzg5","low"
"4","6","free","220","51","57","blue-160","blue","1086","sampling-task","54","471617","0.0-5.0-0.42-0.42","19","6tbzvzg5","low"
"4","7","free","220","51","60","blue-160","blue","518","sampling-task","55","473097","0.0-5.0-0.43-0.43","19","6tbzvzg5","low"
"4","8","free","220","51","42","blue-160","blue","478","sampling-task","56","474561","0.0-5.0-0.44-0.44","19","6tbzvzg5","low"
"4","9","free","220","51","58","blue-160","blue","510","sampling-task","57","476137","0.0-5.0-0.45-0.45","19","6tbzvzg5","low"
"4","10","free","220","51","24","blue-160","blue","478","sampling-task","58","477545","0.0-5.0-0.46-0.46","19","6tbzvzg5","low"
"4","11","free","220","51","48","blue-160","blue","446","sampling-task","59","478897","0.0-5.0-0.47-0.47","19","6tbzvzg5","low"
"4","12","free","220","51","55","blue-160","blue","462","sampling-task","60","480377","0.0-5.0-0.48-0.48","19","6tbzvzg5","low"
"4","13","free","220","51","77","blue-160","blue","469","sampling-task","61","481769","0.0-5.0-0.49-0.49","19","6tbzvzg5","low"
"4","14","free","220","51","70","blue-160","blue","462","sampling-task","62","483345","0.0-5.0-0.50-0.50","19","6tbzvzg5","low"
"4","15","free","220","51","53","blue-160","blue","446","sampling-task","63","484857","0.0-5.0-0.51-0.51","19","6tbzvzg5","low"
"4","16","free","220","51","46","blue-160","blue","462","sampling-task","64","486249","0.0-5.0-0.52-0.52","19","6tbzvzg5","low"
"4","17","free","220","51","54","blue-160","blue","358","sampling-task","65","488481","0.0-5.0-0.53-0.53","19","6tbzvzg5","low"
"5","1","fixed","20","73","73","orange-185","orange","1636","sampling-task","68","510953","0.0-5.0-0.54-0.54","19","6tbzvzg5","low"
"5","2","fixed","20","73","57","orange-185","orange","550","sampling-task","69","512377","0.0-5.0-0.55-0.55","19","6tbzvzg5","low"
"5","3","fixed","20","73","83","orange-185","orange","446","sampling-task","70","513736","0.0-5.0-0.56-0.56","19","6tbzvzg5","low"
"5","4","fixed","20","73","90","orange-185","orange","486","sampling-task","71","515137","0.0-5.0-0.57-0.57","19","6tbzvzg5","low"
"5","5","fixed","20","73","81","orange-185","orange","542","sampling-task","72","516632","0.0-5.0-0.58-0.58","19","6tbzvzg5","low"
"5","6","fixed","20","73","51","orange-185","orange","542","sampling-task","73","518073","0.0-5.0-0.59-0.59","19","6tbzvzg5","low"
"5","7","fixed","20","73","65","orange-185","orange","470","sampling-task","74","519769","0.0-5.0-0.60-0.60","19","6tbzvzg5","low"
"5","8","fixed","20","73","45","orange-185","orange","478","sampling-task","75","521376","0.0-5.0-0.61-0.61","19","6tbzvzg5","low"
"5","9","fixed","20","73","64","orange-185","orange","542","sampling-task","76","522882","0.0-5.0-0.62-0.62","19","6tbzvzg5","low"
"5","10","fixed","20","73","76","orange-185","orange","500","sampling-task","77","524313","0.0-5.0-0.63-0.63","19","6tbzvzg5","low"
"5","11","fixed","20","73","82","orange-185","orange","470","sampling-task","78","526017","0.0-5.0-0.64-0.64","19","6tbzvzg5","low"
"5","12","fixed","20","73","79","orange-185","orange","502","sampling-task","79","527361","0.0-5.0-0.65-0.65","19","6tbzvzg5","low"
"5","13","fixed","20","73","57","orange-185","orange","438","sampling-task","80","528729","0.0-5.0-0.66-0.66","19","6tbzvzg5","low"
"5","14","fixed","20","73","40","orange-185","orange","462","sampling-task","81","530200","0.0-5.0-0.67-0.67","19","6tbzvzg5","low"
"5","15","fixed","20","73","39","orange-185","orange","510","sampling-task","82","531681","0.0-5.0-0.68-0.68","19","6tbzvzg5","low"
"5","16","fixed","20","73","94","orange-185","orange","494","sampling-task","83","533233","0.0-5.0-0.69-0.69","19","6tbzvzg5","low"
"5","17","fixed","20","73","81","orange-185","orange","510","sampling-task","84","534953","0.0-5.0-0.70-0.70","19","6tbzvzg5","low"
"5","18","fixed","20","73","15","orange-185","orange","582","sampling-task","85","536576","0.0-5.0-0.71-0.71","19","6tbzvzg5","low"
"5","19","fixed","20","73","110","orange-185","orange","526","sampling-task","86","538096","0.0-5.0-0.72-0.72","19","6tbzvzg5","low"
"5","20","fixed","20","73","58","orange-185","orange","990","sampling-task","87","540257","0.0-5.0-0.73-0.73","19","6tbzvzg5","low"
"6","1","free","220","112","115","yellow-126","yellow","1661","sampling-task","90","559705","0.0-5.0-0.74-0.74","19","6tbzvzg5","low"
"6","2","free","220","112","148","yellow-126","yellow","454","sampling-task","91","561072","0.0-5.0-0.75-0.75","19","6tbzvzg5","low"
"6","3","free","220","112","94","yellow-126","yellow","662","sampling-task","92","562609","0.0-5.0-0.76-0.76","19","6tbzvzg5","low"
"6","4","free","220","112","98","yellow-126","yellow","484","sampling-task","93","564055","0.0-5.0-0.77-0.77","19","6tbzvzg5","low"
"6","5","free","220","112","126","yellow-126","yellow","430","sampling-task","94","565415","0.0-5.0-0.78-0.78","19","6tbzvzg5","low"
"6","6","free","220","112","137","yellow-126","yellow","422","sampling-task","95","566687","0.0-5.0-0.79-0.79","19","6tbzvzg5","low"
"6","7","free","220","112","72","yellow-126","yellow","454","sampling-task","96","568007","0.0-5.0-0.80-0.80","19","6tbzvzg5","low"
"6","8","free","220","112","85","yellow-126","yellow","438","sampling-task","97","569295","0.0-5.0-0.81-0.81","19","6tbzvzg5","low"
"6","9","free","220","112","121","yellow-126","yellow","446","sampling-task","98","570823","0.0-5.0-0.82-0.82","19","6tbzvzg5","low"
"6","10","free","220","112","116","yellow-126","yellow","446","sampling-task","99","572151","0.0-5.0-0.83-0.83","19","6tbzvzg5","low"
"6","11","free","220","112","157","yellow-126","yellow","430","sampling-task","100","573511","0.0-5.0-0.84-0.84","19","6tbzvzg5","low"
"6","12","free","220","112","139","yellow-126","yellow","470","sampling-task","101","574991","0.0-5.0-0.85-0.85","19","6tbzvzg5","low"
"6","13","free","220","112","101","yellow-126","yellow","446","sampling-task","102","576439","0.0-5.0-0.86-0.86","19","6tbzvzg5","low"
"6","14","free","220","112","109","yellow-126","yellow","622","sampling-task","103","578303","0.0-5.0-0.87-0.87","19","6tbzvzg5","low"
"6","15","free","220","112","146","yellow-126","yellow","494","sampling-task","104","579759","0.0-5.0-0.88-0.88","19","6tbzvzg5","low"
"6","16","free","220","112","124","yellow-126","yellow","542","sampling-task","105","581175","0.0-5.0-0.89-0.89","19","6tbzvzg5","low"
"6","17","free","220","112","134","yellow-126","yellow","430","sampling-task","106","582503","0.0-5.0-0.90-0.90","19","6tbzvzg5","low"
"6","18","free","220","112","127","yellow-126","yellow","390","sampling-task","107","583943","0.0-5.0-0.91-0.91","19","6tbzvzg5","low"
"6","19","free","220","112","127","yellow-126","yellow","430","sampling-task","108","585288","0.0-5.0-0.92-0.92","19","6tbzvzg5","low"
"6","20","free","220","112","87","yellow-126","yellow","414","sampling-task","109","586799","0.0-5.0-0.93-0.93","19","6tbzvzg5","low"
"6","21","free","220","112","70","yellow-126","yellow","414","sampling-task","110","588335","0.0-5.0-0.94-0.94","19","6tbzvzg5","low"
"6","22","free","220","112","112","yellow-126","yellow","438","sampling-task","111","589991","0.0-5.0-0.95-0.95","19","6tbzvzg5","low"
"6","23","free","220","112","76","yellow-126","yellow","454","sampling-task","112","591383","0.0-5.0-0.96-0.96","19","6tbzvzg5","low"
"6","24","free","220","112","95","yellow-126","yellow","470","sampling-task","113","593063","0.0-5.0-0.97-0.97","19","6tbzvzg5","low"
"6","25","free","220","112","125","yellow-126","yellow","454","sampling-task","114","594479","0.0-5.0-0.98-0.98","19","6tbzvzg5","low"
"6","26","free","220","112","130","yellow-126","yellow","814","sampling-task","115","596247","0.0-5.0-0.99-0.99","19","6tbzvzg5","low"
"6","27","free","220","112","91","yellow-126","yellow","462","sampling-task","116","597591","0.0-5.0-0.100-0.100","19","6tbzvzg5","low"
"6","28","free","220","112","122","yellow-126","yellow","486","sampling-task","117","598983","0.0-5.0-0.101-0.101","19","6tbzvzg5","low"
"6","29","free","220","112","143","yellow-126","yellow","462","sampling-task","118","600359","0.0-5.0-0.102-0.102","19","6tbzvzg5","low"
"6","30","free","220","112","131","yellow-126","yellow","462","sampling-task","119","601928","0.0-5.0-0.103-0.103","19","6tbzvzg5","low"
"6","31","free","220","112","104","yellow-126","yellow","462","sampling-task","120","603823","0.0-5.0-0.104-0.104","19","6tbzvzg5","low"
"6","32","free","220","112","125","yellow-126","yellow","406","sampling-task","121","605583","0.0-5.0-0.105-0.105","19","6tbzvzg5","low"
