"round_number","sample_number","sampling_type","nSamples","mean","feedback","stimulus","stimulus_colour","rt","trial_type","trial_index","time_elapsed","internal_node_id","participant","randomID","condition"
"1","1","fixed","5","36","35","blue-186","blue","5117","sampling-task","6","1095377","0.0-5.0-0.0-0.0","38","e8tu853n","low"
"1","2","fixed","5","36","42","blue-186","blue","2246","sampling-task","7","1102905","0.0-5.0-0.1-0.1","38","e8tu853n","low"
"1","3","fixed","5","36","36","blue-186","blue","2246","sampling-task","8","1106673","0.0-5.0-0.2-0.2","38","e8tu853n","low"
"1","4","fixed","5","36","-2","blue-186","blue","3598","sampling-task","9","1112113","0.0-5.0-0.3-0.3","38","e8tu853n","low"
"1","5","fixed","5","36","78","blue-186","blue","2238","sampling-task","10","1116001","0.0-5.0-0.4-0.4","38","e8tu853n","low"
"2","1","free","220","52","42","yellow-69","yellow","2884","sampling-task","13","1169640","0.0-5.0-0.5-0.5","38","e8tu853n","low"
"2","2","free","220","52","56","yellow-69","yellow","910","sampling-task","14","1171624","0.0-5.0-0.6-0.6","38","e8tu853n","low"
"2","3","free","220","52","26","yellow-69","yellow","870","sampling-task","15","1173624","0.0-5.0-0.7-0.7","38","e8tu853n","low"
"2","4","free","220","52","61","yellow-69","yellow","878","sampling-task","16","1175680","0.0-5.0-0.8-0.8","38","e8tu853n","low"
"2","5","free","220","52","85","yellow-69","yellow","1238","sampling-task","17","1178088","0.0-5.0-0.9-0.9","38","e8tu853n","low"
"2","6","free","220","52","41","yellow-69","yellow","862","sampling-task","18","1180032","0.0-5.0-0.10-0.10","38","e8tu853n","low"
"2","7","free","220","52","33","yellow-69","yellow","589","sampling-task","19","1181552","0.0-5.0-0.11-0.11","38","e8tu853n","low"
"2","8","free","220","52","55","yellow-69","yellow","574","sampling-task","20","1183120","0.0-5.0-0.12-0.12","38","e8tu853n","low"
"2","9","free","220","52","66","yellow-69","yellow","494","sampling-task","21","1185048","0.0-5.0-0.13-0.13","38","e8tu853n","low"
"2","10","free","220","52","95","yellow-69","yellow","1118","sampling-task","22","1187368","0.0-5.0-0.14-0.14","38","e8tu853n","low"
"2","11","free","220","52","81","yellow-69","yellow","694","sampling-task","23","1189120","0.0-5.0-0.15-0.15","38","e8tu853n","low"
"2","12","free","220","52","22","yellow-69","yellow","566","sampling-task","24","1192120","0.0-5.0-0.16-0.16","38","e8tu853n","low"
"2","13","free","220","52","57","yellow-69","yellow","758","sampling-task","25","1193928","0.0-5.0-0.17-0.17","38","e8tu853n","low"
"2","14","free","220","52","56","yellow-69","yellow","1493","sampling-task","26","1197552","0.0-5.0-0.18-0.18","38","e8tu853n","low"
"2","15","free","220","52","46","yellow-69","yellow","566","sampling-task","27","1199120","0.0-5.0-0.19-0.19","38","e8tu853n","low"
"2","16","free","220","52","32","yellow-69","yellow","606","sampling-task","28","1200936","0.0-5.0-0.20-0.20","38","e8tu853n","low"
"2","17","free","220","52","44","yellow-69","yellow","878","sampling-task","29","1203344","0.0-5.0-0.21-0.21","38","e8tu853n","low"
"2","18","free","220","52","35","yellow-69","yellow","934","sampling-task","30","1205208","0.0-5.0-0.22-0.22","38","e8tu853n","low"
"2","19","free","220","52","81","yellow-69","yellow","695","sampling-task","31","1207024","0.0-5.0-0.23-0.23","38","e8tu853n","low"
"2","20","free","220","52","45","yellow-69","yellow","1006","sampling-task","32","1208920","0.0-5.0-0.24-0.24","38","e8tu853n","low"
"2","21","free","220","52","61","yellow-69","yellow","630","sampling-task","33","1210688","0.0-5.0-0.25-0.25","38","e8tu853n","low"
"2","22","free","220","52","37","yellow-69","yellow","1502","sampling-task","34","1213248","0.0-5.0-0.26-0.26","38","e8tu853n","low"
"2","23","free","220","52","72","yellow-69","yellow","2838","sampling-task","35","1217232","0.0-5.0-0.27-0.27","38","e8tu853n","low"
"2","24","free","220","52","48","yellow-69","yellow","462","sampling-task","36","1218704","0.0-5.0-0.28-0.28","38","e8tu853n","low"
"2","25","free","220","52","62","yellow-69","yellow","1078","sampling-task","37","1221528","0.0-5.0-0.29-0.29","38","e8tu853n","low"
"2","26","free","220","52","51","yellow-69","yellow","942","sampling-task","38","1223760","0.0-5.0-0.30-0.30","38","e8tu853n","low"
"2","27","free","220","52","57","yellow-69","yellow","629","sampling-task","39","1225352","0.0-5.0-0.31-0.31","38","e8tu853n","low"
"2","28","free","220","52","69","yellow-69","yellow","798","sampling-task","40","1227384","0.0-5.0-0.32-0.32","38","e8tu853n","low"
"2","29","free","220","52","57","yellow-69","yellow","974","sampling-task","41","1229536","0.0-5.0-0.33-0.33","38","e8tu853n","low"
"2","30","free","220","52","53","yellow-69","yellow","3726","sampling-task","42","1235168","0.0-5.0-0.34-0.34","38","e8tu853n","low"
"2","31","free","220","52","20","yellow-69","yellow","1142","sampling-task","43","1237496","0.0-5.0-0.35-0.35","38","e8tu853n","low"
"2","32","free","220","52","-2","yellow-69","yellow","1142","sampling-task","44","1240336","0.0-5.0-0.36-0.36","38","e8tu853n","low"
"2","33","free","220","52","55","yellow-69","yellow","3382","sampling-task","45","1245672","0.0-5.0-0.37-0.37","38","e8tu853n","low"
"2","34","free","220","52","57","yellow-69","yellow","1598","sampling-task","46","1248736","0.0-5.0-0.38-0.38","38","e8tu853n","low"
"2","35","free","220","52","35","yellow-69","yellow","2294","sampling-task","47","1252216","0.0-5.0-0.39-0.39","38","e8tu853n","low"
"2","36","free","220","52","32","yellow-69","yellow","1557","sampling-task","48","1255392","0.0-5.0-0.40-0.40","38","e8tu853n","low"
"2","37","free","220","52","57","yellow-69","yellow","1406","sampling-task","49","1258144","0.0-5.0-0.41-0.41","38","e8tu853n","low"
"2","38","free","220","52","43","yellow-69","yellow","1790","sampling-task","50","1263511","0.0-5.0-0.42-0.42","38","e8tu853n","low"
"2","39","free","220","52","98","yellow-69","yellow","486","sampling-task","51","1265135","0.0-5.0-0.43-0.43","38","e8tu853n","low"
"2","40","free","220","52","71","yellow-69","yellow","1830","sampling-task","52","1268352","0.0-5.0-0.44-0.44","38","e8tu853n","low"
"3","1","fixed","10","13","25","orange-208","orange","5141","sampling-task","55","1295615","0.0-5.0-0.45-0.45","38","e8tu853n","low"
"3","2","fixed","10","13","-1","orange-208","orange","1534","sampling-task","56","1298327","0.0-5.0-0.46-0.46","38","e8tu853n","low"
"3","3","fixed","10","13","18","orange-208","orange","2405","sampling-task","57","1302399","0.0-5.0-0.47-0.47","38","e8tu853n","low"
"3","4","fixed","10","13","26","orange-208","orange","2030","sampling-task","58","1305600","0.0-5.0-0.48-0.48","38","e8tu853n","low"
"3","5","fixed","10","13","43","orange-208","orange","1014","sampling-task","59","1307535","0.0-5.0-0.49-0.49","38","e8tu853n","low"
"3","6","fixed","10","13","24","orange-208","orange","1278","sampling-task","60","1309695","0.0-5.0-0.50-0.50","38","e8tu853n","low"
"3","7","fixed","10","13","-3","orange-208","orange","1854","sampling-task","61","1312864","0.0-5.0-0.51-0.51","38","e8tu853n","low"
"3","8","fixed","10","13","21","orange-208","orange","1350","sampling-task","62","1316239","0.0-5.0-0.52-0.52","38","e8tu853n","low"
"3","9","fixed","10","13","32","orange-208","orange","5446","sampling-task","63","1323607","0.0-5.0-0.53-0.53","38","e8tu853n","low"
"3","10","fixed","10","13","37","orange-208","orange","2502","sampling-task","64","1327343","0.0-5.0-0.54-0.54","38","e8tu853n","low"
"4","1","free","220","117","121","purple-62","purple","4356","sampling-task","67","1357607","0.0-5.0-0.55-0.55","38","e8tu853n","low"
"4","2","free","220","117","130","purple-62","purple","565","sampling-task","68","1359256","0.0-5.0-0.56-0.56","38","e8tu853n","low"
"4","3","free","220","117","126","purple-62","purple","502","sampling-task","69","1360839","0.0-5.0-0.57-0.57","38","e8tu853n","low"
"4","4","free","220","117","92","purple-62","purple","446","sampling-task","70","1362343","0.0-5.0-0.58-0.58","38","e8tu853n","low"
"4","5","free","220","117","127","purple-62","purple","574","sampling-task","71","1364215","0.0-5.0-0.59-0.59","38","e8tu853n","low"
"4","6","free","220","117","105","purple-62","purple","645","sampling-task","72","1366959","0.0-5.0-0.60-0.60","38","e8tu853n","low"
"5","1","fixed","20","70","84","red-11","red","2708","sampling-task","75","1405183","0.0-5.0-0.61-0.61","38","e8tu853n","low"
"5","2","fixed","20","70","71","red-11","red","542","sampling-task","76","1406631","0.0-5.0-0.62-0.62","38","e8tu853n","low"
"5","3","fixed","20","70","52","red-11","red","389","sampling-task","77","1407863","0.0-5.0-0.63-0.63","38","e8tu853n","low"
"5","4","fixed","20","70","78","red-11","red","414","sampling-task","78","1409135","0.0-5.0-0.64-0.64","38","e8tu853n","low"
"5","5","fixed","20","70","51","red-11","red","414","sampling-task","79","1410391","0.0-5.0-0.65-0.65","38","e8tu853n","low"
"5","6","fixed","20","70","66","red-11","red","342","sampling-task","80","1412095","0.0-5.0-0.66-0.66","38","e8tu853n","low"
"5","7","fixed","20","70","88","red-11","red","398","sampling-task","81","1414239","0.0-5.0-0.67-0.67","38","e8tu853n","low"
"5","8","fixed","20","70","63","red-11","red","421","sampling-task","82","1415711","0.0-5.0-0.68-0.68","38","e8tu853n","low"
"5","9","fixed","20","70","84","red-11","red","454","sampling-task","83","1417415","0.0-5.0-0.69-0.69","38","e8tu853n","low"
"5","10","fixed","20","70","65","red-11","red","478","sampling-task","84","1418823","0.0-5.0-0.70-0.70","38","e8tu853n","low"
"5","11","fixed","20","70","80","red-11","red","550","sampling-task","85","1420255","0.0-5.0-0.71-0.71","38","e8tu853n","low"
"5","12","fixed","20","70","73","red-11","red","389","sampling-task","86","1421647","0.0-5.0-0.72-0.72","38","e8tu853n","low"
"5","13","fixed","20","70","99","red-11","red","414","sampling-task","87","1422975","0.0-5.0-0.73-0.73","38","e8tu853n","low"
"5","14","fixed","20","70","103","red-11","red","334","sampling-task","88","1424415","0.0-5.0-0.74-0.74","38","e8tu853n","low"
"5","15","fixed","20","70","73","red-11","red","446","sampling-task","89","1426647","0.0-5.0-0.75-0.75","38","e8tu853n","low"
"5","16","fixed","20","70","84","red-11","red","1877","sampling-task","90","1430271","0.0-5.0-0.76-0.76","38","e8tu853n","low"
"5","17","fixed","20","70","70","red-11","red","454","sampling-task","91","1431551","0.0-5.0-0.77-0.77","38","e8tu853n","low"
"5","18","fixed","20","70","52","red-11","red","949","sampling-task","92","1433887","0.0-5.0-0.78-0.78","38","e8tu853n","low"
"5","19","fixed","20","70","92","red-11","red","670","sampling-task","93","1436543","0.0-5.0-0.79-0.79","38","e8tu853n","low"
"5","20","fixed","20","70","116","red-11","red","588","sampling-task","94","1438007","0.0-5.0-0.80-0.80","38","e8tu853n","low"
"6","1","free","220","98","115","green-113","green","2381","sampling-task","97","1457486","0.0-5.0-0.81-0.81","38","e8tu853n","low"
"6","2","free","220","98","90","green-113","green","326","sampling-task","98","1458758","0.0-5.0-0.82-0.82","38","e8tu853n","low"
"6","3","free","220","98","110","green-113","green","454","sampling-task","99","1460518","0.0-5.0-0.83-0.83","38","e8tu853n","low"
"6","4","free","220","98","118","green-113","green","814","sampling-task","100","1462430","0.0-5.0-0.84-0.84","38","e8tu853n","low"
"6","5","free","220","98","91","green-113","green","622","sampling-task","101","1463951","0.0-5.0-0.85-0.85","38","e8tu853n","low"
"6","6","free","220","98","107","green-113","green","477","sampling-task","102","1465303","0.0-5.0-0.86-0.86","38","e8tu853n","low"
"6","7","free","220","98","113","green-113","green","478","sampling-task","103","1466894","0.0-5.0-0.87-0.87","38","e8tu853n","low"
"6","8","free","220","98","92","green-113","green","430","sampling-task","104","1468430","0.0-5.0-0.88-0.88","38","e8tu853n","low"
"6","9","free","220","98","120","green-113","green","398","sampling-task","105","1469974","0.0-5.0-0.89-0.89","38","e8tu853n","low"
"6","10","free","220","98","122","green-113","green","334","sampling-task","106","1471294","0.0-5.0-0.90-0.90","38","e8tu853n","low"
"6","11","free","220","98","70","green-113","green","390","sampling-task","107","1472558","0.0-5.0-0.91-0.91","38","e8tu853n","low"
"6","12","free","220","98","101","green-113","green","358","sampling-task","108","1473758","0.0-5.0-0.92-0.92","38","e8tu853n","low"
"6","13","free","220","98","88","green-113","green","334","sampling-task","109","1475094","0.0-5.0-0.93-0.93","38","e8tu853n","low"
"6","14","free","220","98","97","green-113","green","358","sampling-task","110","1476590","0.0-5.0-0.94-0.94","38","e8tu853n","low"
"6","15","free","220","98","111","green-113","green","406","sampling-task","111","1478574","0.0-5.0-0.95-0.95","38","e8tu853n","low"
"6","16","free","220","98","102","green-113","green","438","sampling-task","112","1480206","0.0-5.0-0.96-0.96","38","e8tu853n","low"
"6","17","free","220","98","105","green-113","green","566","sampling-task","113","1481671","0.0-5.0-0.97-0.97","38","e8tu853n","low"
"6","18","free","220","98","118","green-113","green","390","sampling-task","114","1483046","0.0-5.0-0.98-0.98","38","e8tu853n","low"
"6","19","free","220","98","93","green-113","green","358","sampling-task","115","1484302","0.0-5.0-0.99-0.99","38","e8tu853n","low"
"6","20","free","220","98","100","green-113","green","374","sampling-task","116","1485766","0.0-5.0-0.100-0.100","38","e8tu853n","low"
"6","21","free","220","98","53","green-113","green","438","sampling-task","117","1487287","0.0-5.0-0.101-0.101","38","e8tu853n","low"
"6","22","free","220","98","70","green-113","green","381","sampling-task","118","1488774","0.0-5.0-0.102-0.102","38","e8tu853n","low"
"6","23","free","220","98","101","green-113","green","406","sampling-task","119","1490462","0.0-5.0-0.103-0.103","38","e8tu853n","low"
"6","24","free","220","98","97","green-113","green","478","sampling-task","120","1491958","0.0-5.0-0.104-0.104","38","e8tu853n","low"
"6","25","free","220","98","100","green-113","green","358","sampling-task","121","1494534","0.0-5.0-0.105-0.105","38","e8tu853n","low"
"6","26","free","220","98","94","green-113","green","574","sampling-task","122","1498086","0.0-5.0-0.106-0.106","38","e8tu853n","low"
"6","27","free","220","98","62","green-113","green","942","sampling-task","123","1502087","0.0-5.0-0.107-0.107","38","e8tu853n","low"
"6","28","free","220","98","114","green-113","green","1309","sampling-task","124","1508765","0.0-5.0-0.108-0.108","38","e8tu853n","low"
"6","29","free","220","98","74","green-113","green","430","sampling-task","125","1510269","0.0-5.0-0.109-0.109","38","e8tu853n","low"
"6","30","free","220","98","125","green-113","green","622","sampling-task","126","1512077","0.0-5.0-0.110-0.110","38","e8tu853n","low"
"6","31","free","220","98","115","green-113","green","2878","sampling-task","127","1519013","0.0-5.0-0.111-0.111","38","e8tu853n","low"
