"round_number","sample_number","sampling_type","nSamples","mean","feedback","stimulus","stimulus_colour","rt","trial_type","trial_index","time_elapsed","internal_node_id","participant","randomID","condition"
"1","1","fixed","10","17","21","blue-110","blue","10332","sampling-task","6","1293209","0.0-5.0-0.0-0.0","68","xdntxzbb","high"
"1","2","fixed","10","17","0","blue-131","blue","2214","sampling-task","7","1297889","0.0-5.0-0.1-0.1","68","xdntxzbb","high"
"1","3","fixed","10","17","-11","blue-162","blue","2550","sampling-task","8","1303536","0.0-5.0-0.2-0.2","68","xdntxzbb","high"
"1","4","fixed","10","17","39","blue-97","blue","911","sampling-task","9","1313504","0.0-5.0-0.3-0.3","68","xdntxzbb","high"
"1","5","fixed","10","17","-25","blue-33","blue","1143","sampling-task","10","1317080","0.0-5.0-0.4-0.4","68","xdntxzbb","high"
"1","6","fixed","10","17","1","blue-162","blue","1223","sampling-task","11","1320016","0.0-5.0-0.5-0.5","68","xdntxzbb","high"
"1","7","fixed","10","17","8","blue-16","blue","1046","sampling-task","12","1325384","0.0-5.0-0.6-0.6","68","xdntxzbb","high"
"1","8","fixed","10","17","28","blue-160","blue","1838","sampling-task","13","1329223","0.0-5.0-0.7-0.7","68","xdntxzbb","high"
"1","9","fixed","10","17","23","blue-100","blue","942","sampling-task","14","1333432","0.0-5.0-0.8-0.8","68","xdntxzbb","high"
"1","10","fixed","10","17","-29","blue-152","blue","870","sampling-task","15","1336344","0.0-5.0-0.9-0.9","68","xdntxzbb","high"
"2","1","free","220","92","66","red-31","red","5003","sampling-task","18","1387151","0.0-5.0-0.10-0.10","68","xdntxzbb","high"
"2","2","free","220","92","116","red-113","red","694","sampling-task","19","1390231","0.0-5.0-0.11-0.11","68","xdntxzbb","high"
"2","3","free","220","92","86","red-182","red","894","sampling-task","20","1392695","0.0-5.0-0.12-0.12","68","xdntxzbb","high"
"2","4","free","220","92","69","red-73","red","806","sampling-task","21","1395047","0.0-5.0-0.13-0.13","68","xdntxzbb","high"
"2","5","free","220","92","87","red-118","red","830","sampling-task","22","1397255","0.0-5.0-0.14-0.14","68","xdntxzbb","high"
"2","6","free","220","92","78","red-154","red","638","sampling-task","23","1399247","0.0-5.0-0.15-0.15","68","xdntxzbb","high"
"2","7","free","220","92","119","red-56","red","527","sampling-task","24","1401031","0.0-5.0-0.16-0.16","68","xdntxzbb","high"
"2","8","free","220","92","77","red-118","red","582","sampling-task","25","1403999","0.0-5.0-0.17-0.17","68","xdntxzbb","high"
"3","1","fixed","20","56","74","orange-169","orange","6164","sampling-task","28","1446006","0.0-5.0-0.18-0.18","68","xdntxzbb","high"
"3","2","fixed","20","56","-4","orange-204","orange","687","sampling-task","29","1448766","0.0-5.0-0.19-0.19","68","xdntxzbb","high"
"3","3","fixed","20","56","77","orange-77","orange","733","sampling-task","30","1450806","0.0-5.0-0.20-0.20","68","xdntxzbb","high"
"3","4","fixed","20","56","48","orange-130","orange","902","sampling-task","31","1454254","0.0-5.0-0.21-0.21","68","xdntxzbb","high"
"3","5","fixed","20","56","68","orange-69","orange","822","sampling-task","32","1457638","0.0-5.0-0.22-0.22","68","xdntxzbb","high"
"3","6","fixed","20","56","65","orange-22","orange","895","sampling-task","33","1460078","0.0-5.0-0.23-0.23","68","xdntxzbb","high"
"3","7","fixed","20","56","67","orange-155","orange","782","sampling-task","34","1462422","0.0-5.0-0.24-0.24","68","xdntxzbb","high"
"3","8","fixed","20","56","106","orange-211","orange","695","sampling-task","35","1464526","0.0-5.0-0.25-0.25","68","xdntxzbb","high"
"3","9","fixed","20","56","46","orange-203","orange","591","sampling-task","36","1466742","0.0-5.0-0.26-0.26","68","xdntxzbb","high"
"3","10","fixed","20","56","40","orange-40","orange","575","sampling-task","37","1468718","0.0-5.0-0.27-0.27","68","xdntxzbb","high"
"3","11","fixed","20","56","52","orange-67","orange","535","sampling-task","38","1470702","0.0-5.0-0.28-0.28","68","xdntxzbb","high"
"3","12","fixed","20","56","67","orange-194","orange","535","sampling-task","39","1473214","0.0-5.0-0.29-0.29","68","xdntxzbb","high"
"3","13","fixed","20","56","67","orange-214","orange","575","sampling-task","40","1474822","0.0-5.0-0.30-0.30","68","xdntxzbb","high"
"3","14","fixed","20","56","47","orange-151","orange","566","sampling-task","41","1476534","0.0-5.0-0.31-0.31","68","xdntxzbb","high"
"3","15","fixed","20","56","69","orange-122","orange","567","sampling-task","42","1478342","0.0-5.0-0.32-0.32","68","xdntxzbb","high"
"3","16","fixed","20","56","49","orange-11","orange","670","sampling-task","43","1480366","0.0-5.0-0.33-0.33","68","xdntxzbb","high"
"3","17","fixed","20","56","18","orange-208","orange","1198","sampling-task","44","1482814","0.0-5.0-0.34-0.34","68","xdntxzbb","high"
"3","18","fixed","20","56","60","orange-212","orange","847","sampling-task","45","1484894","0.0-5.0-0.35-0.35","68","xdntxzbb","high"
"3","19","fixed","20","56","59","orange-45","orange","854","sampling-task","46","1487518","0.0-5.0-0.36-0.36","68","xdntxzbb","high"
"3","20","fixed","20","56","63","orange-51","orange","807","sampling-task","47","1490590","0.0-5.0-0.37-0.37","68","xdntxzbb","high"
"4","1","free","220","112","154","yellow-201","yellow","2317","sampling-task","50","1540149","0.0-5.0-0.38-0.38","68","xdntxzbb","high"
"4","2","free","220","112","105","yellow-12","yellow","910","sampling-task","51","1542573","0.0-5.0-0.39-0.39","68","xdntxzbb","high"
"4","3","free","220","112","94","yellow-46","yellow","838","sampling-task","52","1544773","0.0-5.0-0.40-0.40","68","xdntxzbb","high"
"4","4","free","220","112","113","yellow-96","yellow","606","sampling-task","53","1546814","0.0-5.0-0.41-0.41","68","xdntxzbb","high"
"4","5","free","220","112","137","yellow-137","yellow","790","sampling-task","54","1548813","0.0-5.0-0.42-0.42","68","xdntxzbb","high"
"4","6","free","220","112","116","yellow-53","yellow","646","sampling-task","55","1550862","0.0-5.0-0.43-0.43","68","xdntxzbb","high"
"4","7","free","220","112","135","yellow-73","yellow","574","sampling-task","56","1552566","0.0-5.0-0.44-0.44","68","xdntxzbb","high"
"4","8","free","220","112","128","yellow-100","yellow","646","sampling-task","57","1554461","0.0-5.0-0.45-0.45","68","xdntxzbb","high"
"4","9","free","220","112","87","yellow-15","yellow","558","sampling-task","58","1556022","0.0-5.0-0.46-0.46","68","xdntxzbb","high"
"4","10","free","220","112","96","yellow-174","yellow","630","sampling-task","59","1557813","0.0-5.0-0.47-0.47","68","xdntxzbb","high"
"4","11","free","220","112","135","yellow-47","yellow","630","sampling-task","60","1559510","0.0-5.0-0.48-0.48","68","xdntxzbb","high"
"4","12","free","220","112","101","yellow-124","yellow","558","sampling-task","61","1561134","0.0-5.0-0.49-0.49","68","xdntxzbb","high"
"4","13","free","220","112","67","yellow-114","yellow","494","sampling-task","62","1563373","0.0-5.0-0.50-0.50","68","xdntxzbb","high"
"4","14","free","220","112","122","yellow-132","yellow","558","sampling-task","63","1565094","0.0-5.0-0.51-0.51","68","xdntxzbb","high"
"4","15","free","220","112","136","yellow-35","yellow","597","sampling-task","64","1566804","0.0-5.0-0.52-0.52","68","xdntxzbb","high"
"4","16","free","220","112","130","yellow-27","yellow","583","sampling-task","65","1568372","0.0-5.0-0.53-0.53","68","xdntxzbb","high"
"4","17","free","220","112","94","yellow-121","yellow","462","sampling-task","66","1570020","0.0-5.0-0.54-0.54","68","xdntxzbb","high"
"4","18","free","220","112","105","yellow-34","yellow","518","sampling-task","67","1572164","0.0-5.0-0.55-0.55","68","xdntxzbb","high"
"4","19","free","220","112","96","yellow-123","yellow","647","sampling-task","68","1573964","0.0-5.0-0.56-0.56","68","xdntxzbb","high"
"4","20","free","220","112","123","yellow-1","yellow","598","sampling-task","69","1575772","0.0-5.0-0.57-0.57","68","xdntxzbb","high"
"4","21","free","220","112","111","yellow-216","yellow","646","sampling-task","70","1577364","0.0-5.0-0.58-0.58","68","xdntxzbb","high"
"4","22","free","220","112","115","yellow-75","yellow","494","sampling-task","71","1578956","0.0-5.0-0.59-0.59","68","xdntxzbb","high"
"4","23","free","220","112","126","yellow-120","yellow","438","sampling-task","72","1580316","0.0-5.0-0.60-0.60","68","xdntxzbb","high"
"4","24","free","220","112","123","yellow-40","yellow","382","sampling-task","73","1581940","0.0-5.0-0.61-0.61","68","xdntxzbb","high"
"4","25","free","220","112","112","yellow-32","yellow","430","sampling-task","74","1584140","0.0-5.0-0.62-0.62","68","xdntxzbb","high"
"4","26","free","220","112","132","yellow-192","yellow","462","sampling-task","75","1585564","0.0-5.0-0.63-0.63","68","xdntxzbb","high"
"4","27","free","220","112","102","yellow-21","yellow","462","sampling-task","76","1586972","0.0-5.0-0.64-0.64","68","xdntxzbb","high"
"4","28","free","220","112","109","yellow-165","yellow","438","sampling-task","77","1588292","0.0-5.0-0.65-0.65","68","xdntxzbb","high"
"4","29","free","220","112","95","yellow-199","yellow","462","sampling-task","78","1589644","0.0-5.0-0.66-0.66","68","xdntxzbb","high"
"4","30","free","220","112","143","yellow-38","yellow","454","sampling-task","79","1591036","0.0-5.0-0.67-0.67","68","xdntxzbb","high"
"4","31","free","220","112","122","yellow-106","yellow","398","sampling-task","80","1592541","0.0-5.0-0.68-0.68","68","xdntxzbb","high"
"4","32","free","220","112","130","yellow-77","yellow","462","sampling-task","81","1594588","0.0-5.0-0.69-0.69","68","xdntxzbb","high"
"4","33","free","220","112","127","yellow-202","yellow","566","sampling-task","82","1597044","0.0-5.0-0.70-0.70","68","xdntxzbb","high"
"5","1","fixed","5","38","40","purple-82","purple","5228","sampling-task","85","1643692","0.0-5.0-0.71-0.71","68","xdntxzbb","high"
"5","2","fixed","5","38","47","purple-121","purple","774","sampling-task","86","1648340","0.0-5.0-0.72-0.72","68","xdntxzbb","high"
"5","3","fixed","5","38","50","purple-190","purple","837","sampling-task","87","1650796","0.0-5.0-0.73-0.73","68","xdntxzbb","high"
"5","4","fixed","5","38","48","purple-51","purple","669","sampling-task","88","1653188","0.0-5.0-0.74-0.74","68","xdntxzbb","high"
"5","5","fixed","5","38","27","purple-183","purple","670","sampling-task","89","1655612","0.0-5.0-0.75-0.75","68","xdntxzbb","high"
"6","1","free","220","79","90","green-87","green","3132","sampling-task","92","1684524","0.0-5.0-0.76-0.76","68","xdntxzbb","high"
"6","2","free","220","79","63","green-174","green","813","sampling-task","93","1686955","0.0-5.0-0.77-0.77","68","xdntxzbb","high"
"6","3","free","220","79","68","green-170","green","758","sampling-task","94","1688931","0.0-5.0-0.78-0.78","68","xdntxzbb","high"
"6","4","free","220","79","84","green-164","green","766","sampling-task","95","1690828","0.0-5.0-0.79-0.79","68","xdntxzbb","high"
"6","5","free","220","79","92","green-156","green","604","sampling-task","96","1692651","0.0-5.0-0.80-0.80","68","xdntxzbb","high"
"6","6","free","220","79","80","green-124","green","614","sampling-task","97","1694475","0.0-5.0-0.81-0.81","68","xdntxzbb","high"
"6","7","free","220","79","81","green-211","green","478","sampling-task","98","1696331","0.0-5.0-0.82-0.82","68","xdntxzbb","high"
"6","8","free","220","79","83","green-76","green","558","sampling-task","99","1697803","0.0-5.0-0.83-0.83","68","xdntxzbb","high"
"6","9","free","220","79","74","green-109","green","582","sampling-task","100","1699419","0.0-5.0-0.84-0.84","68","xdntxzbb","high"
"6","10","free","220","79","79","green-167","green","1214","sampling-task","101","1704531","0.0-5.0-0.85-0.85","68","xdntxzbb","high"
"6","11","free","220","79","75","green-39","green","750","sampling-task","102","1706523","0.0-5.0-0.86-0.86","68","xdntxzbb","high"
"6","12","free","220","79","77","green-30","green","486","sampling-task","103","1708323","0.0-5.0-0.87-0.87","68","xdntxzbb","high"
"6","13","free","220","79","45","green-202","green","470","sampling-task","104","1709915","0.0-5.0-0.88-0.88","68","xdntxzbb","high"
"6","14","free","220","79","108","green-144","green","478","sampling-task","105","1711507","0.0-5.0-0.89-0.89","68","xdntxzbb","high"
"6","15","free","220","79","122","green-122","green","542","sampling-task","106","1713163","0.0-5.0-0.90-0.90","68","xdntxzbb","high"
"6","16","free","220","79","41","green-147","green","542","sampling-task","107","1714915","0.0-5.0-0.91-0.91","68","xdntxzbb","high"
"6","17","free","220","79","72","green-43","green","534","sampling-task","108","1716627","0.0-5.0-0.92-0.92","68","xdntxzbb","high"
"6","18","free","220","79","72","green-38","green","526","sampling-task","109","1718251","0.0-5.0-0.93-0.93","68","xdntxzbb","high"
"6","19","free","220","79","76","green-153","green","430","sampling-task","110","1719803","0.0-5.0-0.94-0.94","68","xdntxzbb","high"
"6","20","free","220","79","72","green-45","green","510","sampling-task","111","1722035","0.0-5.0-0.95-0.95","68","xdntxzbb","high"
