"round_number","sample_number","sampling_type","nSamples","mean","feedback","stimulus","stimulus_colour","rt","trial_type","trial_index","time_elapsed","internal_node_id","participant","randomID","condition"
"1","1","fixed","20","55","39","green-155","green","14205","sampling-task","6","361300","0.0-5.0-0.0-0.0","114","xxm0fvy8","high"
"1","2","fixed","20","55","73","green-32","green","1213","sampling-task","7","367580","0.0-5.0-0.1-0.1","114","xxm0fvy8","high"
"1","3","fixed","20","55","55","green-87","green","902","sampling-task","8","372356","0.0-5.0-0.2-0.2","114","xxm0fvy8","high"
"1","4","fixed","20","55","49","green-188","green","5902","sampling-task","9","380530","0.0-5.0-0.3-0.3","114","xxm0fvy8","high"
"1","5","fixed","20","55","43","green-167","green","1509","sampling-task","10","383514","0.0-5.0-0.4-0.4","114","xxm0fvy8","high"
"1","6","fixed","20","55","61","green-160","green","838","sampling-task","11","386258","0.0-5.0-0.5-0.5","114","xxm0fvy8","high"
"1","7","fixed","20","55","45","green-155","green","806","sampling-task","12","388490","0.0-5.0-0.6-0.6","114","xxm0fvy8","high"
"1","8","fixed","20","55","48","green-8","green","734","sampling-task","13","390906","0.0-5.0-0.7-0.7","114","xxm0fvy8","high"
"1","9","fixed","20","55","65","green-151","green","534","sampling-task","14","392802","0.0-5.0-0.8-0.8","114","xxm0fvy8","high"
"1","10","fixed","20","55","74","green-62","green","622","sampling-task","15","398986","0.0-5.0-0.9-0.9","114","xxm0fvy8","high"
"1","11","fixed","20","55","40","green-219","green","551","sampling-task","16","400570","0.0-5.0-0.10-0.10","114","xxm0fvy8","high"
"1","12","fixed","20","55","35","green-71","green","1006","sampling-task","17","402514","0.0-5.0-0.11-0.11","114","xxm0fvy8","high"
"1","13","fixed","20","55","37","green-43","green","470","sampling-task","18","403850","0.0-5.0-0.12-0.12","114","xxm0fvy8","high"
"1","14","fixed","20","55","47","green-204","green","494","sampling-task","19","405298","0.0-5.0-0.13-0.13","114","xxm0fvy8","high"
"1","15","fixed","20","55","17","green-48","green","559","sampling-task","20","406906","0.0-5.0-0.14-0.14","114","xxm0fvy8","high"
"1","16","fixed","20","55","69","green-99","green","647","sampling-task","21","408778","0.0-5.0-0.15-0.15","114","xxm0fvy8","high"
"1","17","fixed","20","55","-3","green-215","green","591","sampling-task","22","410490","0.0-5.0-0.16-0.16","114","xxm0fvy8","high"
"1","18","fixed","20","55","58","green-89","green","934","sampling-task","23","413034","0.0-5.0-0.17-0.17","114","xxm0fvy8","high"
"1","19","fixed","20","55","66","green-88","green","733","sampling-task","24","414842","0.0-5.0-0.18-0.18","114","xxm0fvy8","high"
"1","20","fixed","20","55","34","green-119","green","687","sampling-task","25","416482","0.0-5.0-0.19-0.19","114","xxm0fvy8","high"
"2","1","free","220","70","78","red-141","red","6268","sampling-task","28","480851","0.0-5.0-0.20-0.20","114","xxm0fvy8","high"
"2","2","free","220","70","58","red-166","red","870","sampling-task","29","490866","0.0-5.0-0.21-0.21","114","xxm0fvy8","high"
"2","3","free","220","70","102","red-179","red","558","sampling-task","30","493347","0.0-5.0-0.22-0.22","114","xxm0fvy8","high"
"2","4","free","220","70","43","red-112","red","662","sampling-task","31","498787","0.0-5.0-0.23-0.23","114","xxm0fvy8","high"
"2","5","free","220","70","70","red-220","red","782","sampling-task","32","502690","0.0-5.0-0.24-0.24","114","xxm0fvy8","high"
"2","6","free","220","70","23","red-169","red","599","sampling-task","33","507338","0.0-5.0-0.25-0.25","114","xxm0fvy8","high"
"2","7","free","220","70","75","red-184","red","710","sampling-task","34","514386","0.0-5.0-0.26-0.26","114","xxm0fvy8","high"
"2","8","free","220","70","26","red-37","red","966","sampling-task","35","519634","0.0-5.0-0.27-0.27","114","xxm0fvy8","high"
"2","9","free","220","70","91","red-38","red","622","sampling-task","36","521658","0.0-5.0-0.28-0.28","114","xxm0fvy8","high"
"3","1","fixed","5","13","-8","purple-74","purple","4596","sampling-task","39","569786","0.0-5.0-0.29-0.29","114","xxm0fvy8","high"
"3","2","fixed","5","13","64","purple-142","purple","709","sampling-task","40","575466","0.0-5.0-0.30-0.30","114","xxm0fvy8","high"
"3","3","fixed","5","13","13","purple-1","purple","695","sampling-task","41","580226","0.0-5.0-0.31-0.31","114","xxm0fvy8","high"
"3","4","fixed","5","13","4","purple-217","purple","782","sampling-task","42","583266","0.0-5.0-0.32-0.32","114","xxm0fvy8","high"
"3","5","fixed","5","13","3","purple-129","purple","1534","sampling-task","43","586002","0.0-5.0-0.33-0.33","114","xxm0fvy8","high"
"4","1","free","220","94","113","blue-50","blue","3300","sampling-task","46","632475","0.0-5.0-0.34-0.34","114","xxm0fvy8","high"
"4","2","free","220","94","99","blue-92","blue","670","sampling-task","47","636555","0.0-5.0-0.35-0.35","114","xxm0fvy8","high"
"4","3","free","220","94","78","blue-147","blue","700","sampling-task","48","642779","0.0-5.0-0.36-0.36","114","xxm0fvy8","high"
"4","4","free","220","94","122","blue-202","blue","566","sampling-task","49","645027","0.0-5.0-0.37-0.37","114","xxm0fvy8","high"
"4","5","free","220","94","97","blue-142","blue","654","sampling-task","50","646883","0.0-5.0-0.38-0.38","114","xxm0fvy8","high"
"4","6","free","220","94","70","blue-6","blue","486","sampling-task","51","648499","0.0-5.0-0.39-0.39","114","xxm0fvy8","high"
"4","7","free","220","94","114","blue-59","blue","534","sampling-task","52","650619","0.0-5.0-0.40-0.40","114","xxm0fvy8","high"
"4","8","free","220","94","72","blue-181","blue","533","sampling-task","53","653131","0.0-5.0-0.41-0.41","114","xxm0fvy8","high"
"4","9","free","220","94","104","blue-80","blue","526","sampling-task","54","654683","0.0-5.0-0.42-0.42","114","xxm0fvy8","high"
"4","10","free","220","94","119","blue-22","blue","486","sampling-task","55","656139","0.0-5.0-0.43-0.43","114","xxm0fvy8","high"
"4","11","free","220","94","97","blue-164","blue","558","sampling-task","56","657635","0.0-5.0-0.44-0.44","114","xxm0fvy8","high"
"4","12","free","220","94","87","blue-131","blue","718","sampling-task","57","659875","0.0-5.0-0.45-0.45","114","xxm0fvy8","high"
"4","13","free","220","94","86","blue-102","blue","558","sampling-task","58","662483","0.0-5.0-0.46-0.46","114","xxm0fvy8","high"
"4","14","free","220","94","95","blue-20","blue","406","sampling-task","59","663883","0.0-5.0-0.47-0.47","114","xxm0fvy8","high"
"4","15","free","220","94","135","blue-69","blue","399","sampling-task","60","665563","0.0-5.0-0.48-0.48","114","xxm0fvy8","high"
"5","1","fixed","10","117","142","orange-151","orange","3701","sampling-task","63","706586","0.0-5.0-0.49-0.49","114","xxm0fvy8","high"
"5","2","fixed","10","117","146","orange-123","orange","678","sampling-task","64","708746","0.0-5.0-0.50-0.50","114","xxm0fvy8","high"
"5","3","fixed","10","117","117","orange-5","orange","526","sampling-task","65","715330","0.0-5.0-0.51-0.51","114","xxm0fvy8","high"
"5","4","fixed","10","117","122","orange-96","orange","501","sampling-task","66","718514","0.0-5.0-0.52-0.52","114","xxm0fvy8","high"
"5","5","fixed","10","117","154","orange-200","orange","654","sampling-task","67","720674","0.0-5.0-0.53-0.53","114","xxm0fvy8","high"
"5","6","fixed","10","117","59","orange-15","orange","670","sampling-task","68","723754","0.0-5.0-0.54-0.54","114","xxm0fvy8","high"
"5","7","fixed","10","117","105","orange-214","orange","1382","sampling-task","69","727050","0.0-5.0-0.55-0.55","114","xxm0fvy8","high"
"5","8","fixed","10","117","138","orange-114","orange","606","sampling-task","70","728810","0.0-5.0-0.56-0.56","114","xxm0fvy8","high"
"5","9","fixed","10","117","178","orange-183","orange","550","sampling-task","71","732514","0.0-5.0-0.57-0.57","114","xxm0fvy8","high"
"5","10","fixed","10","117","151","orange-219","orange","670","sampling-task","72","734138","0.0-5.0-0.58-0.58","114","xxm0fvy8","high"
"6","1","free","220","34","42","yellow-75","yellow","2332","sampling-task","75","763883","0.0-5.0-0.59-0.59","114","xxm0fvy8","high"
"6","2","free","220","34","57","yellow-168","yellow","487","sampling-task","76","766387","0.0-5.0-0.60-0.60","114","xxm0fvy8","high"
"6","3","free","220","34","39","yellow-178","yellow","566","sampling-task","77","768091","0.0-5.0-0.61-0.61","114","xxm0fvy8","high"
"6","4","free","220","34","40","yellow-50","yellow","591","sampling-task","78","769595","0.0-5.0-0.62-0.62","114","xxm0fvy8","high"
"6","5","free","220","34","73","yellow-28","yellow","454","sampling-task","79","771475","0.0-5.0-0.63-0.63","114","xxm0fvy8","high"
"6","6","free","220","34","49","yellow-165","yellow","431","sampling-task","80","772803","0.0-5.0-0.64-0.64","114","xxm0fvy8","high"
"6","7","free","220","34","32","yellow-207","yellow","430","sampling-task","81","774179","0.0-5.0-0.65-0.65","114","xxm0fvy8","high"
"6","8","free","220","34","52","yellow-62","yellow","415","sampling-task","82","775579","0.0-5.0-0.66-0.66","114","xxm0fvy8","high"
"6","9","free","220","34","62","yellow-45","yellow","423","sampling-task","83","776875","0.0-5.0-0.67-0.67","114","xxm0fvy8","high"
"6","10","free","220","34","40","yellow-148","yellow","415","sampling-task","84","778179","0.0-5.0-0.68-0.68","114","xxm0fvy8","high"
"6","11","free","220","34","33","yellow-115","yellow","415","sampling-task","85","780227","0.0-5.0-0.69-0.69","114","xxm0fvy8","high"
