"round_number","sample_number","sampling_type","nSamples","mean","feedback","stimulus","stimulus_colour","rt","trial_type","trial_index","time_elapsed","internal_node_id","participant","randomID","condition"
"1","1","fixed","10","95","116","blue-66","blue","10653","sampling-task","9","375328","0.0-5.0-0.0-0.0","53","128uc6un","low"
"1","2","fixed","10","95","103","blue-66","blue","1877","sampling-task","10","378991","0.0-5.0-0.1-0.1","53","128uc6un","low"
"1","3","fixed","10","95","93","blue-66","blue","829","sampling-task","11","383983","0.0-5.0-0.2-0.2","53","128uc6un","low"
"1","4","fixed","10","95","95","blue-66","blue","2021","sampling-task","12","387279","0.0-5.0-0.3-0.3","53","128uc6un","low"
"1","5","fixed","10","95","97","blue-66","blue","757","sampling-task","13","388927","0.0-5.0-0.4-0.4","53","128uc6un","low"
"1","6","fixed","10","95","118","blue-66","blue","1158","sampling-task","14","391183","0.0-5.0-0.5-0.5","53","128uc6un","low"
"1","7","fixed","10","95","107","blue-66","blue","1398","sampling-task","15","393831","0.0-5.0-0.6-0.6","53","128uc6un","low"
"1","8","fixed","10","95","124","blue-66","blue","741","sampling-task","16","399847","0.0-5.0-0.7-0.7","53","128uc6un","low"
"1","9","fixed","10","95","81","blue-66","blue","1149","sampling-task","17","403415","0.0-5.0-0.8-0.8","53","128uc6un","low"
"1","10","fixed","10","95","76","blue-66","blue","661","sampling-task","18","408119","0.0-5.0-0.9-0.9","53","128uc6un","low"
"2","1","free","220","117","131","red-142","red","1468","sampling-task","21","447918","0.0-5.0-0.10-0.10","53","128uc6un","low"
"2","2","free","220","117","132","red-142","red","829","sampling-task","22","449902","0.0-5.0-0.11-0.11","53","128uc6un","low"
"2","3","free","220","117","115","red-142","red","678","sampling-task","23","452110","0.0-5.0-0.12-0.12","53","128uc6un","low"
"2","4","free","220","117","113","red-142","red","517","sampling-task","24","453846","0.0-5.0-0.13-0.13","53","128uc6un","low"
"2","5","free","220","117","116","red-142","red","574","sampling-task","25","455318","0.0-5.0-0.14-0.14","53","128uc6un","low"
"2","6","free","220","117","118","red-142","red","518","sampling-task","26","456942","0.0-5.0-0.15-0.15","53","128uc6un","low"
"2","7","free","220","117","130","red-142","red","486","sampling-task","27","460846","0.0-5.0-0.16-0.16","53","128uc6un","low"
"2","8","free","220","117","134","red-142","red","437","sampling-task","28","462646","0.0-5.0-0.17-0.17","53","128uc6un","low"
"3","1","fixed","20","36","50","yellow-182","yellow","4188","sampling-task","31","493006","0.0-5.0-0.18-0.18","53","128uc6un","low"
"3","2","fixed","20","36","52","yellow-182","yellow","613","sampling-task","32","494606","0.0-5.0-0.19-0.19","53","128uc6un","low"
"3","3","fixed","20","36","54","yellow-182","yellow","526","sampling-task","33","495981","0.0-5.0-0.20-0.20","53","128uc6un","low"
"3","4","fixed","20","36","31","yellow-182","yellow","606","sampling-task","34","497476","0.0-5.0-0.21-0.21","53","128uc6un","low"
"3","5","fixed","20","36","39","yellow-182","yellow","486","sampling-task","35","498797","0.0-5.0-0.22-0.22","53","128uc6un","low"
"3","6","fixed","20","36","16","yellow-182","yellow","478","sampling-task","36","500133","0.0-5.0-0.23-0.23","53","128uc6un","low"
"3","7","fixed","20","36","31","yellow-182","yellow","470","sampling-task","37","501564","0.0-5.0-0.24-0.24","53","128uc6un","low"
"3","8","fixed","20","36","42","yellow-182","yellow","526","sampling-task","38","503124","0.0-5.0-0.25-0.25","53","128uc6un","low"
"3","9","fixed","20","36","31","yellow-182","yellow","710","sampling-task","39","504981","0.0-5.0-0.26-0.26","53","128uc6un","low"
"3","10","fixed","20","36","-1","yellow-182","yellow","710","sampling-task","40","506700","0.0-5.0-0.27-0.27","53","128uc6un","low"
"3","11","fixed","20","36","41","yellow-182","yellow","502","sampling-task","41","508261","0.0-5.0-0.28-0.28","53","128uc6un","low"
"3","12","fixed","20","36","-5","yellow-182","yellow","470","sampling-task","42","509685","0.0-5.0-0.29-0.29","53","128uc6un","low"
"3","13","fixed","20","36","72","yellow-182","yellow","502","sampling-task","43","511540","0.0-5.0-0.30-0.30","53","128uc6un","low"
"3","14","fixed","20","36","61","yellow-182","yellow","470","sampling-task","44","513349","0.0-5.0-0.31-0.31","53","128uc6un","low"
"3","15","fixed","20","36","28","yellow-182","yellow","438","sampling-task","45","515069","0.0-5.0-0.32-0.32","53","128uc6un","low"
"3","16","fixed","20","36","41","yellow-182","yellow","510","sampling-task","46","516565","0.0-5.0-0.33-0.33","53","128uc6un","low"
"3","17","fixed","20","36","23","yellow-182","yellow","494","sampling-task","47","518077","0.0-5.0-0.34-0.34","53","128uc6un","low"
"3","18","fixed","20","36","46","yellow-182","yellow","494","sampling-task","48","519421","0.0-5.0-0.35-0.35","53","128uc6un","low"
"3","19","fixed","20","36","37","yellow-182","yellow","493","sampling-task","49","520877","0.0-5.0-0.36-0.36","53","128uc6un","low"
"3","20","fixed","20","36","82","yellow-182","yellow","478","sampling-task","50","522365","0.0-5.0-0.37-0.37","53","128uc6un","low"
"4","1","free","220","72","66","orange-128","orange","1892","sampling-task","53","554604","0.0-5.0-0.38-0.38","53","128uc6un","low"
"4","2","free","220","72","64","orange-128","orange","662","sampling-task","54","556532","0.0-5.0-0.39-0.39","53","128uc6un","low"
"4","3","free","220","72","62","orange-128","orange","606","sampling-task","55","558236","0.0-5.0-0.40-0.40","53","128uc6un","low"
"4","4","free","220","72","80","orange-128","orange","549","sampling-task","56","559780","0.0-5.0-0.41-0.41","53","128uc6un","low"
"4","5","free","220","72","70","orange-128","orange","485","sampling-task","57","561420","0.0-5.0-0.42-0.42","53","128uc6un","low"
"4","6","free","220","72","49","orange-128","orange","574","sampling-task","58","562916","0.0-5.0-0.43-0.43","53","128uc6un","low"
"4","7","free","220","72","101","orange-128","orange","470","sampling-task","59","564660","0.0-5.0-0.44-0.44","53","128uc6un","low"
"4","8","free","220","72","70","orange-128","orange","429","sampling-task","60","565988","0.0-5.0-0.45-0.45","53","128uc6un","low"
"4","9","free","220","72","62","orange-128","orange","485","sampling-task","61","567380","0.0-5.0-0.46-0.46","53","128uc6un","low"
"4","10","free","220","72","49","orange-128","orange","438","sampling-task","62","568732","0.0-5.0-0.47-0.47","53","128uc6un","low"
"4","11","free","220","72","66","orange-128","orange","518","sampling-task","63","570148","0.0-5.0-0.48-0.48","53","128uc6un","low"
"4","12","free","220","72","96","orange-128","orange","453","sampling-task","64","571748","0.0-5.0-0.49-0.49","53","128uc6un","low"
"4","13","free","220","72","58","orange-128","orange","485","sampling-task","65","573276","0.0-5.0-0.50-0.50","53","128uc6un","low"
"4","14","free","220","72","93","orange-128","orange","429","sampling-task","66","575268","0.0-5.0-0.51-0.51","53","128uc6un","low"
"4","15","free","220","72","54","orange-128","orange","437","sampling-task","67","576756","0.0-5.0-0.52-0.52","53","128uc6un","low"
"4","16","free","220","72","46","orange-128","orange","614","sampling-task","68","578324","0.0-5.0-0.53-0.53","53","128uc6un","low"
"4","17","free","220","72","68","orange-128","orange","661","sampling-task","69","580157","0.0-5.0-0.54-0.54","53","128uc6un","low"
"4","18","free","220","72","47","orange-128","orange","405","sampling-task","70","581772","0.0-5.0-0.55-0.55","53","128uc6un","low"
"4","19","free","220","72","73","orange-128","orange","446","sampling-task","71","583276","0.0-5.0-0.56-0.56","53","128uc6un","low"
"4","20","free","220","72","80","orange-128","orange","349","sampling-task","72","584636","0.0-5.0-0.57-0.57","53","128uc6un","low"
"4","21","free","220","72","67","orange-128","orange","343","sampling-task","73","585868","0.0-5.0-0.58-0.58","53","128uc6un","low"
"4","22","free","220","72","81","orange-128","orange","390","sampling-task","74","587276","0.0-5.0-0.59-0.59","53","128uc6un","low"
"4","23","free","220","72","80","orange-128","orange","319","sampling-task","75","589476","0.0-5.0-0.60-0.60","53","128uc6un","low"
"4","24","free","220","72","69","orange-128","orange","397","sampling-task","76","591300","0.0-5.0-0.61-0.61","53","128uc6un","low"
"4","25","free","220","72","70","orange-128","orange","581","sampling-task","77","592756","0.0-5.0-0.62-0.62","53","128uc6un","low"
"4","26","free","220","72","72","orange-128","orange","517","sampling-task","78","595428","0.0-5.0-0.63-0.63","53","128uc6un","low"
"4","27","free","220","72","60","orange-128","orange","534","sampling-task","79","596900","0.0-5.0-0.64-0.64","53","128uc6un","low"
"4","28","free","220","72","74","orange-128","orange","422","sampling-task","80","598148","0.0-5.0-0.65-0.65","53","128uc6un","low"
"4","29","free","220","72","55","orange-128","orange","318","sampling-task","81","599316","0.0-5.0-0.66-0.66","53","128uc6un","low"
"4","30","free","220","72","92","orange-128","orange","326","sampling-task","82","600556","0.0-5.0-0.67-0.67","53","128uc6un","low"
"5","1","fixed","5","53","81","purple-42","purple","1856","sampling-task","85","627875","0.0-5.0-0.68-0.68","53","128uc6un","low"
"5","2","fixed","5","53","50","purple-42","purple","414","sampling-task","86","629187","0.0-5.0-0.69-0.69","53","128uc6un","low"
"5","3","fixed","5","53","59","purple-42","purple","510","sampling-task","87","630571","0.0-5.0-0.70-0.70","53","128uc6un","low"
"5","4","fixed","5","53","70","purple-42","purple","381","sampling-task","88","631835","0.0-5.0-0.71-0.71","53","128uc6un","low"
"5","5","fixed","5","53","25","purple-42","purple","646","sampling-task","89","633324","0.0-5.0-0.72-0.72","53","128uc6un","low"
"6","1","free","220","14","30","green-200","green","1212","sampling-task","92","660355","0.0-5.0-0.73-0.73","53","128uc6un","low"
"6","2","free","220","14","36","green-200","green","510","sampling-task","93","661723","0.0-5.0-0.74-0.74","53","128uc6un","low"
"6","3","free","220","14","21","green-200","green","469","sampling-task","94","663075","0.0-5.0-0.75-0.75","53","128uc6un","low"
"6","4","free","220","14","17","green-200","green","422","sampling-task","95","664443","0.0-5.0-0.76-0.76","53","128uc6un","low"
"6","5","free","220","14","-3","green-200","green","374","sampling-task","96","665939","0.0-5.0-0.77-0.77","53","128uc6un","low"
"6","6","free","220","14","-7","green-200","green","390","sampling-task","97","667580","0.0-5.0-0.78-0.78","53","128uc6un","low"
"6","7","free","220","14","34","green-200","green","1446","sampling-task","98","671891","0.0-5.0-0.79-0.79","53","128uc6un","low"
