"round_number","sample_number","sampling_type","nSamples","mean","feedback","stimulus","stimulus_colour","rt","trial_type","trial_index","time_elapsed","internal_node_id","participant","randomID","condition"
"1","1","fixed","10","19","17","purple-204","purple","6919","sampling-task","21","630594","0.0-5.0-0.0-0.0","27","g8cs2qqn","high"
"1","2","fixed","10","19","35","purple-20","purple","6670","sampling-task","22","638938","0.0-5.0-0.1-0.1","27","g8cs2qqn","high"
"1","3","fixed","10","19","14","purple-17","purple","1766","sampling-task","23","642154","0.0-5.0-0.2-0.2","27","g8cs2qqn","high"
"1","4","fixed","10","19","-16","purple-171","purple","1023","sampling-task","24","644666","0.0-5.0-0.3-0.3","27","g8cs2qqn","high"
"1","5","fixed","10","19","34","purple-220","purple","1622","sampling-task","25","647562","0.0-5.0-0.4-0.4","27","g8cs2qqn","high"
"1","6","fixed","10","19","14","purple-124","purple","790","sampling-task","26","649242","0.0-5.0-0.5-0.5","27","g8cs2qqn","high"
"1","7","fixed","10","19","0","purple-123","purple","726","sampling-task","27","650978","0.0-5.0-0.6-0.6","27","g8cs2qqn","high"
"1","8","fixed","10","19","24","purple-98","purple","870","sampling-task","28","652738","0.0-5.0-0.7-0.7","27","g8cs2qqn","high"
"1","9","fixed","10","19","22","purple-93","purple","1326","sampling-task","29","654946","0.0-5.0-0.8-0.8","27","g8cs2qqn","high"
"1","10","fixed","10","19","58","purple-89","purple","822","sampling-task","30","656706","0.0-5.0-0.9-0.9","27","g8cs2qqn","high"
"2","1","free","220","35","33","yellow-97","yellow","3820","sampling-task","33","695937","0.0-5.0-0.10-0.10","27","g8cs2qqn","high"
"2","2","free","220","35","13","yellow-79","yellow","870","sampling-task","34","698905","0.0-5.0-0.11-0.11","27","g8cs2qqn","high"
"2","3","free","220","35","36","yellow-193","yellow","662","sampling-task","35","700577","0.0-5.0-0.12-0.12","27","g8cs2qqn","high"
"2","4","free","220","35","15","yellow-53","yellow","671","sampling-task","36","702129","0.0-5.0-0.13-0.13","27","g8cs2qqn","high"
"2","5","free","220","35","4","yellow-209","yellow","927","sampling-task","37","704105","0.0-5.0-0.14-0.14","27","g8cs2qqn","high"
"2","6","free","220","35","47","yellow-118","yellow","871","sampling-task","38","705913","0.0-5.0-0.15-0.15","27","g8cs2qqn","high"
"2","7","free","220","35","25","yellow-124","yellow","807","sampling-task","39","707825","0.0-5.0-0.16-0.16","27","g8cs2qqn","high"
"2","8","free","220","35","31","yellow-54","yellow","903","sampling-task","40","709585","0.0-5.0-0.17-0.17","27","g8cs2qqn","high"
"2","9","free","220","35","28","yellow-139","yellow","782","sampling-task","41","711537","0.0-5.0-0.18-0.18","27","g8cs2qqn","high"
"2","10","free","220","35","52","yellow-144","yellow","814","sampling-task","42","713585","0.0-5.0-0.19-0.19","27","g8cs2qqn","high"
"2","11","free","220","35","42","yellow-214","yellow","703","sampling-task","43","715617","0.0-5.0-0.20-0.20","27","g8cs2qqn","high"
"2","12","free","220","35","56","yellow-183","yellow","567","sampling-task","44","717073","0.0-5.0-0.21-0.21","27","g8cs2qqn","high"
"2","13","free","220","35","34","yellow-147","yellow","607","sampling-task","45","718585","0.0-5.0-0.22-0.22","27","g8cs2qqn","high"
"2","14","free","220","35","76","yellow-122","yellow","607","sampling-task","46","720034","0.0-5.0-0.23-0.23","27","g8cs2qqn","high"
"2","15","free","220","35","15","yellow-5","yellow","550","sampling-task","47","721705","0.0-5.0-0.24-0.24","27","g8cs2qqn","high"
"2","16","free","220","35","41","yellow-149","yellow","663","sampling-task","48","723257","0.0-5.0-0.25-0.25","27","g8cs2qqn","high"
"2","17","free","220","35","42","yellow-83","yellow","631","sampling-task","49","724745","0.0-5.0-0.26-0.26","27","g8cs2qqn","high"
"2","18","free","220","35","26","yellow-41","yellow","1302","sampling-task","50","727017","0.0-5.0-0.27-0.27","27","g8cs2qqn","high"
"2","19","free","220","35","28","yellow-131","yellow","462","sampling-task","51","728425","0.0-5.0-0.28-0.28","27","g8cs2qqn","high"
"2","20","free","220","35","23","yellow-66","yellow","551","sampling-task","52","729817","0.0-5.0-0.29-0.29","27","g8cs2qqn","high"
"2","21","free","220","35","57","yellow-202","yellow","990","sampling-task","53","732385","0.0-5.0-0.30-0.30","27","g8cs2qqn","high"
"3","1","fixed","5","97","128","orange-83","orange","4812","sampling-task","56","751496","0.0-5.0-0.31-0.31","27","g8cs2qqn","high"
"3","2","fixed","5","97","77","orange-144","orange","662","sampling-task","57","753384","0.0-5.0-0.32-0.32","27","g8cs2qqn","high"
"3","3","fixed","5","97","62","orange-93","orange","694","sampling-task","58","755064","0.0-5.0-0.33-0.33","27","g8cs2qqn","high"
"3","4","fixed","5","97","100","orange-10","orange","662","sampling-task","59","756928","0.0-5.0-0.34-0.34","27","g8cs2qqn","high"
"3","5","fixed","5","97","137","orange-145","orange","942","sampling-task","60","759112","0.0-5.0-0.35-0.35","27","g8cs2qqn","high"
"4","1","free","220","77","87","green-23","green","1892","sampling-task","63","774288","0.0-5.0-0.36-0.36","27","g8cs2qqn","high"
"4","2","free","220","77","89","green-192","green","662","sampling-task","64","775872","0.0-5.0-0.37-0.37","27","g8cs2qqn","high"
"4","3","free","220","77","62","green-143","green","470","sampling-task","65","777384","0.0-5.0-0.38-0.38","27","g8cs2qqn","high"
"4","4","free","220","77","69","green-26","green","510","sampling-task","66","778936","0.0-5.0-0.39-0.39","27","g8cs2qqn","high"
"4","5","free","220","77","118","green-25","green","454","sampling-task","67","780608","0.0-5.0-0.40-0.40","27","g8cs2qqn","high"
"4","6","free","220","77","82","green-217","green","509","sampling-task","68","782016","0.0-5.0-0.41-0.41","27","g8cs2qqn","high"
"4","7","free","220","77","92","green-20","green","486","sampling-task","69","783400","0.0-5.0-0.42-0.42","27","g8cs2qqn","high"
"4","8","free","220","77","65","green-47","green","478","sampling-task","70","784960","0.0-5.0-0.43-0.43","27","g8cs2qqn","high"
"4","9","free","220","77","86","green-33","green","502","sampling-task","71","786832","0.0-5.0-0.44-0.44","27","g8cs2qqn","high"
"4","10","free","220","77","91","green-115","green","486","sampling-task","72","788200","0.0-5.0-0.45-0.45","27","g8cs2qqn","high"
"4","11","free","220","77","73","green-116","green","462","sampling-task","73","789520","0.0-5.0-0.46-0.46","27","g8cs2qqn","high"
"4","12","free","220","77","75","green-110","green","454","sampling-task","74","790904","0.0-5.0-0.47-0.47","27","g8cs2qqn","high"
"4","13","free","220","77","93","green-128","green","478","sampling-task","75","792768","0.0-5.0-0.48-0.48","27","g8cs2qqn","high"
"4","14","free","220","77","87","green-165","green","470","sampling-task","76","794112","0.0-5.0-0.49-0.49","27","g8cs2qqn","high"
"4","15","free","220","77","83","green-69","green","430","sampling-task","77","795384","0.0-5.0-0.50-0.50","27","g8cs2qqn","high"
"4","16","free","220","77","72","green-82","green","542","sampling-task","78","797328","0.0-5.0-0.51-0.51","27","g8cs2qqn","high"
"5","1","fixed","20","114","106","blue-207","blue","3669","sampling-task","81","813352","0.0-5.0-0.52-0.52","27","g8cs2qqn","high"
"5","2","fixed","20","114","93","blue-4","blue","598","sampling-task","82","815359","0.0-5.0-0.53-0.53","27","g8cs2qqn","high"
"5","3","fixed","20","114","97","blue-35","blue","510","sampling-task","83","816767","0.0-5.0-0.54-0.54","27","g8cs2qqn","high"
"5","4","fixed","20","114","103","blue-117","blue","566","sampling-task","84","818247","0.0-5.0-0.55-0.55","27","g8cs2qqn","high"
"5","5","fixed","20","114","130","blue-141","blue","670","sampling-task","85","820191","0.0-5.0-0.56-0.56","27","g8cs2qqn","high"
"5","6","fixed","20","114","134","blue-122","blue","1037","sampling-task","86","822543","0.0-5.0-0.57-0.57","27","g8cs2qqn","high"
"5","7","fixed","20","114","109","blue-74","blue","782","sampling-task","87","824247","0.0-5.0-0.58-0.58","27","g8cs2qqn","high"
"5","8","fixed","20","114","105","blue-158","blue","1110","sampling-task","88","826224","0.0-5.0-0.59-0.59","27","g8cs2qqn","high"
"5","9","fixed","20","114","90","blue-40","blue","830","sampling-task","89","827935","0.0-5.0-0.60-0.60","27","g8cs2qqn","high"
"5","10","fixed","20","114","107","blue-42","blue","750","sampling-task","90","829920","0.0-5.0-0.61-0.61","27","g8cs2qqn","high"
"5","11","fixed","20","114","128","blue-151","blue","574","sampling-task","91","831336","0.0-5.0-0.62-0.62","27","g8cs2qqn","high"
"5","12","fixed","20","114","94","blue-56","blue","526","sampling-task","92","832720","0.0-5.0-0.63-0.63","27","g8cs2qqn","high"
"5","13","fixed","20","114","100","blue-111","blue","622","sampling-task","93","834191","0.0-5.0-0.64-0.64","27","g8cs2qqn","high"
"5","14","fixed","20","114","100","blue-101","blue","750","sampling-task","94","836232","0.0-5.0-0.65-0.65","27","g8cs2qqn","high"
"5","15","fixed","20","114","119","blue-137","blue","726","sampling-task","95","837871","0.0-5.0-0.66-0.66","27","g8cs2qqn","high"
"5","16","fixed","20","114","146","blue-13","blue","614","sampling-task","96","839415","0.0-5.0-0.67-0.67","27","g8cs2qqn","high"
"5","17","fixed","20","114","135","blue-74","blue","494","sampling-task","97","840832","0.0-5.0-0.68-0.68","27","g8cs2qqn","high"
"5","18","fixed","20","114","130","blue-74","blue","542","sampling-task","98","842703","0.0-5.0-0.69-0.69","27","g8cs2qqn","high"
"5","19","fixed","20","114","66","blue-92","blue","511","sampling-task","99","844223","0.0-5.0-0.70-0.70","27","g8cs2qqn","high"
"5","20","fixed","20","114","150","blue-204","blue","494","sampling-task","100","845583","0.0-5.0-0.71-0.71","27","g8cs2qqn","high"
"6","1","free","220","57","16","red-75","red","2741","sampling-task","103","864263","0.0-5.0-0.72-0.72","27","g8cs2qqn","high"
