"round_number","sample_number","sampling_type","nSamples","mean","feedback","stimulus","stimulus_colour","rt","trial_type","trial_index","time_elapsed","internal_node_id","participant","randomID","condition"
"1","1","fixed","5","93","88","blue-150","blue","4453","sampling-task","6","211949","0.0-5.0-0.0-0.0","110","by9gun00","high"
"1","2","fixed","5","93","86","blue-138","blue","3910","sampling-task","7","218949","0.0-5.0-0.1-0.1","110","by9gun00","high"
"1","3","fixed","5","93","96","blue-41","blue","3534","sampling-task","8","224420","0.0-5.0-0.2-0.2","110","by9gun00","high"
"1","4","fixed","5","93","121","blue-160","blue","1782","sampling-task","9","228469","0.0-5.0-0.3-0.3","110","by9gun00","high"
"1","5","fixed","5","93","86","blue-132","blue","1054","sampling-task","10","231365","0.0-5.0-0.4-0.4","110","by9gun00","high"
"2","1","free","220","32","22","yellow-118","yellow","2156","sampling-task","13","263213","0.0-5.0-0.5-0.5","110","by9gun00","high"
"2","2","free","220","32","21","yellow-37","yellow","790","sampling-task","14","266204","0.0-5.0-0.6-0.6","110","by9gun00","high"
"2","3","free","220","32","16","yellow-217","yellow","702","sampling-task","15","269933","0.0-5.0-0.7-0.7","110","by9gun00","high"
"2","4","free","220","32","35","yellow-45","yellow","1054","sampling-task","16","272035","0.0-5.0-0.8-0.8","110","by9gun00","high"
"2","5","free","220","32","56","yellow-92","yellow","710","sampling-task","17","274860","0.0-5.0-0.9-0.9","110","by9gun00","high"
"2","6","free","220","32","25","yellow-172","yellow","710","sampling-task","18","279739","0.0-5.0-0.10-0.10","110","by9gun00","high"
"2","7","free","220","32","45","yellow-58","yellow","878","sampling-task","19","282148","0.0-5.0-0.11-0.11","110","by9gun00","high"
"2","8","free","220","32","9","yellow-146","yellow","814","sampling-task","20","284443","0.0-5.0-0.12-0.12","110","by9gun00","high"
"2","9","free","220","32","37","yellow-210","yellow","719","sampling-task","21","287899","0.0-5.0-0.13-0.13","110","by9gun00","high"
"3","1","fixed","10","114","111","green-162","green","3245","sampling-task","24","315779","0.0-5.0-0.14-0.14","110","by9gun00","high"
"3","2","fixed","10","114","120","green-10","green","878","sampling-task","25","319268","0.0-5.0-0.15-0.15","110","by9gun00","high"
"3","3","fixed","10","114","120","green-123","green","2166","sampling-task","26","323100","0.0-5.0-0.16-0.16","110","by9gun00","high"
"3","4","fixed","10","114","110","green-181","green","549","sampling-task","27","325012","0.0-5.0-0.17-0.17","110","by9gun00","high"
"3","5","fixed","10","114","115","green-19","green","542","sampling-task","28","326956","0.0-5.0-0.18-0.18","110","by9gun00","high"
"3","6","fixed","10","114","135","green-159","green","558","sampling-task","29","329987","0.0-5.0-0.19-0.19","110","by9gun00","high"
"3","7","fixed","10","114","82","green-82","green","502","sampling-task","30","332025","0.0-5.0-0.20-0.20","110","by9gun00","high"
"3","8","fixed","10","114","118","green-49","green","543","sampling-task","31","335569","0.0-5.0-0.21-0.21","110","by9gun00","high"
"3","9","fixed","10","114","104","green-134","green","471","sampling-task","32","337681","0.0-5.0-0.22-0.22","110","by9gun00","high"
"3","10","fixed","10","114","115","green-214","green","455","sampling-task","33","340105","0.0-5.0-0.23-0.23","110","by9gun00","high"
"4","1","free","220","12","16","purple-12","purple","3869","sampling-task","36","366417","0.0-5.0-0.24-0.24","110","by9gun00","high"
"4","2","free","220","12","28","purple-161","purple","670","sampling-task","37","368801","0.0-5.0-0.25-0.25","110","by9gun00","high"
"4","3","free","220","12","24","purple-204","purple","543","sampling-task","38","370889","0.0-5.0-0.26-0.26","110","by9gun00","high"
"4","4","free","220","12","-14","purple-19","purple","447","sampling-task","39","372793","0.0-5.0-0.27-0.27","110","by9gun00","high"
"4","5","free","220","12","5","purple-100","purple","502","sampling-task","40","374553","0.0-5.0-0.28-0.28","110","by9gun00","high"
"4","6","free","220","12","7","purple-85","purple","479","sampling-task","41","376265","0.0-5.0-0.29-0.29","110","by9gun00","high"
"4","7","free","220","12","-23","purple-13","purple","470","sampling-task","42","378122","0.0-5.0-0.30-0.30","110","by9gun00","high"
"4","8","free","220","12","-12","purple-119","purple","518","sampling-task","43","380073","0.0-5.0-0.31-0.31","110","by9gun00","high"
"4","9","free","220","12","4","purple-186","purple","478","sampling-task","44","382089","0.0-5.0-0.32-0.32","110","by9gun00","high"
"4","10","free","220","12","-1","purple-210","purple","511","sampling-task","45","383889","0.0-5.0-0.33-0.33","110","by9gun00","high"
"4","11","free","220","12","26","purple-135","purple","495","sampling-task","46","386193","0.0-5.0-0.34-0.34","110","by9gun00","high"
"4","12","free","220","12","33","purple-150","purple","479","sampling-task","47","387793","0.0-5.0-0.35-0.35","110","by9gun00","high"
"4","13","free","220","12","14","purple-15","purple","574","sampling-task","48","389505","0.0-5.0-0.36-0.36","110","by9gun00","high"
"5","1","fixed","20","58","52","orange-44","orange","2244","sampling-task","51","415976","0.0-5.0-0.37-0.37","110","by9gun00","high"
"5","2","fixed","20","58","43","orange-197","orange","1086","sampling-task","52","421592","0.0-5.0-0.38-0.38","110","by9gun00","high"
"5","3","fixed","20","58","47","orange-79","orange","934","sampling-task","53","423520","0.0-5.0-0.39-0.39","110","by9gun00","high"
"5","4","fixed","20","58","42","orange-114","orange","526","sampling-task","54","425008","0.0-5.0-0.40-0.40","110","by9gun00","high"
"5","5","fixed","20","58","43","orange-148","orange","534","sampling-task","55","426664","0.0-5.0-0.41-0.41","110","by9gun00","high"
"5","6","fixed","20","58","58","orange-70","orange","454","sampling-task","56","429192","0.0-5.0-0.42-0.42","110","by9gun00","high"
"5","7","fixed","20","58","68","orange-126","orange","479","sampling-task","57","430912","0.0-5.0-0.43-0.43","110","by9gun00","high"
"5","8","fixed","20","58","37","orange-128","orange","478","sampling-task","58","433000","0.0-5.0-0.44-0.44","110","by9gun00","high"
"5","9","fixed","20","58","20","orange-53","orange","494","sampling-task","59","434696","0.0-5.0-0.45-0.45","110","by9gun00","high"
"5","10","fixed","20","58","63","orange-43","orange","518","sampling-task","60","436472","0.0-5.0-0.46-0.46","110","by9gun00","high"
"5","11","fixed","20","58","85","orange-36","orange","477","sampling-task","61","438192","0.0-5.0-0.47-0.47","110","by9gun00","high"
"5","12","fixed","20","58","61","orange-88","orange","462","sampling-task","62","439864","0.0-5.0-0.48-0.48","110","by9gun00","high"
"5","13","fixed","20","58","71","orange-63","orange","462","sampling-task","63","441408","0.0-5.0-0.49-0.49","110","by9gun00","high"
"5","14","fixed","20","58","81","orange-122","orange","463","sampling-task","64","443880","0.0-5.0-0.50-0.50","110","by9gun00","high"
"5","15","fixed","20","58","42","orange-202","orange","430","sampling-task","65","445352","0.0-5.0-0.51-0.51","110","by9gun00","high"
"5","16","fixed","20","58","39","orange-8","orange","422","sampling-task","66","446688","0.0-5.0-0.52-0.52","110","by9gun00","high"
"5","17","fixed","20","58","66","orange-211","orange","391","sampling-task","67","448144","0.0-5.0-0.53-0.53","110","by9gun00","high"
"5","18","fixed","20","58","56","orange-121","orange","398","sampling-task","68","449384","0.0-5.0-0.54-0.54","110","by9gun00","high"
"5","19","fixed","20","58","67","orange-28","orange","527","sampling-task","69","450776","0.0-5.0-0.55-0.55","110","by9gun00","high"
"5","20","fixed","20","58","58","orange-142","orange","495","sampling-task","70","452591","0.0-5.0-0.56-0.56","110","by9gun00","high"
"6","1","free","220","72","121","red-118","red","2301","sampling-task","73","470215","0.0-5.0-0.57-0.57","110","by9gun00","high"
"6","2","free","220","72","80","red-66","red","638","sampling-task","74","472487","0.0-5.0-0.58-0.58","110","by9gun00","high"
"6","3","free","220","72","42","red-156","red","631","sampling-task","75","474847","0.0-5.0-0.59-0.59","110","by9gun00","high"
"6","4","free","220","72","49","red-162","red","559","sampling-task","76","476855","0.0-5.0-0.60-0.60","110","by9gun00","high"
"6","5","free","220","72","53","red-2","red","478","sampling-task","77","478727","0.0-5.0-0.61-0.61","110","by9gun00","high"
"6","6","free","220","72","43","red-181","red","454","sampling-task","78","480655","0.0-5.0-0.62-0.62","110","by9gun00","high"
"6","7","free","220","72","67","red-211","red","503","sampling-task","79","482631","0.0-5.0-0.63-0.63","110","by9gun00","high"
"6","8","free","220","72","78","red-91","red","463","sampling-task","80","484455","0.0-5.0-0.64-0.64","110","by9gun00","high"
"6","9","free","220","72","59","red-58","red","471","sampling-task","81","486031","0.0-5.0-0.65-0.65","110","by9gun00","high"
"6","10","free","220","72","60","red-93","red","446","sampling-task","82","487663","0.0-5.0-0.66-0.66","110","by9gun00","high"
"6","11","free","220","72","84","red-194","red","439","sampling-task","83","489279","0.0-5.0-0.67-0.67","110","by9gun00","high"
