"round_number","sample_number","sampling_type","nSamples","mean","feedback","stimulus","stimulus_colour","rt","trial_type","trial_index","time_elapsed","internal_node_id","participant","randomID","condition"
"1","1","fixed","10","38","64","purple-107","purple","4805","sampling-task","6","302392","0.0-5.0-0.0-0.0","73","26kptx8a","high"
"1","2","fixed","10","38","13","purple-82","purple","1885","sampling-task","7","306520","0.0-5.0-0.1-0.1","73","26kptx8a","high"
"1","3","fixed","10","38","19","purple-125","purple","1390","sampling-task","8","309736","0.0-5.0-0.2-0.2","73","26kptx8a","high"
"1","4","fixed","10","38","57","purple-119","purple","2878","sampling-task","9","314920","0.0-5.0-0.3-0.3","73","26kptx8a","high"
"1","5","fixed","10","38","79","purple-87","purple","1501","sampling-task","10","318600","0.0-5.0-0.4-0.4","73","26kptx8a","high"
"1","6","fixed","10","38","17","purple-145","purple","1302","sampling-task","11","321968","0.0-5.0-0.5-0.5","73","26kptx8a","high"
"1","7","fixed","10","38","25","purple-13","purple","1110","sampling-task","12","325384","0.0-5.0-0.6-0.6","73","26kptx8a","high"
"1","8","fixed","10","38","36","purple-70","purple","1038","sampling-task","13","328104","0.0-5.0-0.7-0.7","73","26kptx8a","high"
"1","9","fixed","10","38","39","purple-148","purple","1110","sampling-task","14","331032","0.0-5.0-0.8-0.8","73","26kptx8a","high"
"1","10","fixed","10","38","78","purple-190","purple","1366","sampling-task","15","334624","0.0-5.0-0.9-0.9","73","26kptx8a","high"
"2","1","free","220","76","82","blue-117","blue","4796","sampling-task","18","378367","0.0-5.0-0.10-0.10","73","26kptx8a","high"
"2","2","free","220","76","65","blue-42","blue","934","sampling-task","19","381750","0.0-5.0-0.11-0.11","73","26kptx8a","high"
"2","3","free","220","76","63","blue-69","blue","790","sampling-task","20","383959","0.0-5.0-0.12-0.12","73","26kptx8a","high"
"2","4","free","220","76","117","blue-114","blue","822","sampling-task","21","386351","0.0-5.0-0.13-0.13","73","26kptx8a","high"
"2","5","free","220","76","74","blue-210","blue","854","sampling-task","22","388487","0.0-5.0-0.14-0.14","73","26kptx8a","high"
"2","6","free","220","76","60","blue-29","blue","982","sampling-task","23","390743","0.0-5.0-0.15-0.15","73","26kptx8a","high"
"2","7","free","220","76","86","blue-207","blue","814","sampling-task","24","392694","0.0-5.0-0.16-0.16","73","26kptx8a","high"
"2","8","free","220","76","100","blue-159","blue","998","sampling-task","25","395382","0.0-5.0-0.17-0.17","73","26kptx8a","high"
"2","9","free","220","76","70","blue-35","blue","654","sampling-task","26","396982","0.0-5.0-0.18-0.18","73","26kptx8a","high"
"2","10","free","220","76","47","blue-167","blue","847","sampling-task","27","399333","0.0-5.0-0.19-0.19","73","26kptx8a","high"
"2","11","free","220","76","78","blue-185","blue","550","sampling-task","28","400901","0.0-5.0-0.20-0.20","73","26kptx8a","high"
"2","12","free","220","76","63","blue-175","blue","790","sampling-task","29","402861","0.0-5.0-0.21-0.21","73","26kptx8a","high"
"2","13","free","220","76","48","blue-28","blue","886","sampling-task","30","404941","0.0-5.0-0.22-0.22","73","26kptx8a","high"
"2","14","free","220","76","102","blue-128","blue","590","sampling-task","31","406733","0.0-5.0-0.23-0.23","73","26kptx8a","high"
"2","15","free","220","76","52","blue-4","blue","982","sampling-task","32","409085","0.0-5.0-0.24-0.24","73","26kptx8a","high"
"2","16","free","220","76","63","blue-11","blue","1022","sampling-task","33","411341","0.0-5.0-0.25-0.25","73","26kptx8a","high"
"3","1","fixed","5","12","-30","red-86","red","5148","sampling-task","36","453428","0.0-5.0-0.26-0.26","73","26kptx8a","high"
"3","2","fixed","5","12","12","red-133","red","654","sampling-task","37","455541","0.0-5.0-0.27-0.27","73","26kptx8a","high"
"3","3","fixed","5","12","9","red-78","red","1062","sampling-task","38","457869","0.0-5.0-0.28-0.28","73","26kptx8a","high"
"3","4","fixed","5","12","-15","red-102","red","1077","sampling-task","39","460675","0.0-5.0-0.29-0.29","73","26kptx8a","high"
"3","5","fixed","5","12","20","red-136","red","1278","sampling-task","40","463307","0.0-5.0-0.30-0.30","73","26kptx8a","high"
"4","1","free","220","96","75","orange-180","orange","2556","sampling-task","43","493724","0.0-5.0-0.31-0.31","73","26kptx8a","high"
"4","2","free","220","96","108","orange-106","orange","765","sampling-task","44","496004","0.0-5.0-0.32-0.32","73","26kptx8a","high"
"4","3","free","220","96","107","orange-187","orange","1781","sampling-task","45","498908","0.0-5.0-0.33-0.33","73","26kptx8a","high"
"4","4","free","220","96","135","orange-94","orange","1038","sampling-task","46","501612","0.0-5.0-0.34-0.34","73","26kptx8a","high"
"4","5","free","220","96","103","orange-92","orange","902","sampling-task","47","503611","0.0-5.0-0.35-0.35","73","26kptx8a","high"
"4","6","free","220","96","96","orange-73","orange","749","sampling-task","48","505419","0.0-5.0-0.36-0.36","73","26kptx8a","high"
"4","7","free","220","96","132","orange-132","orange","703","sampling-task","49","507163","0.0-5.0-0.37-0.37","73","26kptx8a","high"
"4","8","free","220","96","123","orange-12","orange","918","sampling-task","50","510084","0.0-5.0-0.38-0.38","73","26kptx8a","high"
"5","1","fixed","20","119","149","green-48","green","5917","sampling-task","53","553099","0.0-5.0-0.39-0.39","73","26kptx8a","high"
"5","2","fixed","20","119","120","green-77","green","1046","sampling-task","54","562547","0.0-5.0-0.40-0.40","73","26kptx8a","high"
"5","3","fixed","20","119","119","green-208","green","1414","sampling-task","55","565139","0.0-5.0-0.41-0.41","73","26kptx8a","high"
"5","4","fixed","20","119","130","green-144","green","662","sampling-task","56","567187","0.0-5.0-0.42-0.42","73","26kptx8a","high"
"5","5","fixed","20","119","128","green-77","green","677","sampling-task","57","569059","0.0-5.0-0.43-0.43","73","26kptx8a","high"
"5","6","fixed","20","119","131","green-101","green","606","sampling-task","58","570643","0.0-5.0-0.44-0.44","73","26kptx8a","high"
"5","7","fixed","20","119","121","green-142","green","1142","sampling-task","59","572802","0.0-5.0-0.45-0.45","73","26kptx8a","high"
"5","8","fixed","20","119","113","green-75","green","750","sampling-task","60","574619","0.0-5.0-0.46-0.46","73","26kptx8a","high"
"5","9","fixed","20","119","136","green-14","green","838","sampling-task","61","576994","0.0-5.0-0.47-0.47","73","26kptx8a","high"
"5","10","fixed","20","119","111","green-195","green","590","sampling-task","62","578595","0.0-5.0-0.48-0.48","73","26kptx8a","high"
"5","11","fixed","20","119","131","green-10","green","782","sampling-task","63","580371","0.0-5.0-0.49-0.49","73","26kptx8a","high"
"5","12","fixed","20","119","137","green-148","green","749","sampling-task","64","582041","0.0-5.0-0.50-0.50","73","26kptx8a","high"
"5","13","fixed","20","119","74","green-148","green","670","sampling-task","65","584009","0.0-5.0-0.51-0.51","73","26kptx8a","high"
"5","14","fixed","20","119","123","green-144","green","1238","sampling-task","66","586201","0.0-5.0-0.52-0.52","73","26kptx8a","high"
"5","15","fixed","20","119","82","green-57","green","814","sampling-task","67","588417","0.0-5.0-0.53-0.53","73","26kptx8a","high"
"5","16","fixed","20","119","145","green-2","green","719","sampling-task","68","590145","0.0-5.0-0.54-0.54","73","26kptx8a","high"
"5","17","fixed","20","119","114","green-132","green","743","sampling-task","69","592145","0.0-5.0-0.55-0.55","73","26kptx8a","high"
"5","18","fixed","20","119","140","green-196","green","789","sampling-task","70","594025","0.0-5.0-0.56-0.56","73","26kptx8a","high"
"5","19","fixed","20","119","114","green-184","green","775","sampling-task","71","595705","0.0-5.0-0.57-0.57","73","26kptx8a","high"
"5","20","fixed","20","119","167","green-5","green","822","sampling-task","72","597881","0.0-5.0-0.58-0.58","73","26kptx8a","high"
"6","1","free","220","58","59","yellow-138","yellow","3115","sampling-task","75","637505","0.0-5.0-0.59-0.59","73","26kptx8a","high"
"6","2","free","220","58","40","yellow-87","yellow","1285","sampling-task","76","641424","0.0-5.0-0.60-0.60","73","26kptx8a","high"
"6","3","free","220","58","52","yellow-120","yellow","902","sampling-task","77","643536","0.0-5.0-0.61-0.61","73","26kptx8a","high"
"6","4","free","220","58","101","yellow-51","yellow","766","sampling-task","78","645679","0.0-5.0-0.62-0.62","73","26kptx8a","high"
"6","5","free","220","58","63","yellow-163","yellow","886","sampling-task","79","648239","0.0-5.0-0.63-0.63","73","26kptx8a","high"
"6","6","free","220","58","28","yellow-67","yellow","902","sampling-task","80","651039","0.0-5.0-0.64-0.64","73","26kptx8a","high"
"6","7","free","220","58","53","yellow-141","yellow","990","sampling-task","81","653175","0.0-5.0-0.65-0.65","73","26kptx8a","high"
"6","8","free","220","58","65","yellow-85","yellow","1174","sampling-task","82","655239","0.0-5.0-0.66-0.66","73","26kptx8a","high"
"6","9","free","220","58","78","yellow-98","yellow","1798","sampling-task","83","658199","0.0-5.0-0.67-0.67","73","26kptx8a","high"
"6","10","free","220","58","46","yellow-212","yellow","814","sampling-task","84","659927","0.0-5.0-0.68-0.68","73","26kptx8a","high"
"6","11","free","220","58","48","yellow-35","yellow","1510","sampling-task","85","662575","0.0-5.0-0.69-0.69","73","26kptx8a","high"
