"round_number","sample_number","sampling_type","nSamples","mean","feedback","stimulus","stimulus_colour","rt","trial_type","trial_index","time_elapsed","internal_node_id","participant","randomID","condition"
"1","1","fixed","5","10","11","orange-26","orange","66172","sampling-task","12","3738231","0.0-5.0-0.0-0.0","104","6fe67c9p","high"
"1","2","fixed","5","10","23","orange-191","orange","8990","sampling-task","13","3752446","0.0-5.0-0.1-0.1","104","6fe67c9p","high"
"1","3","fixed","5","10","8","orange-115","orange","1951","sampling-task","14","3756998","0.0-5.0-0.2-0.2","104","6fe67c9p","high"
"1","4","fixed","5","10","-7","orange-150","orange","1375","sampling-task","15","3760406","0.0-5.0-0.3-0.3","104","6fe67c9p","high"
"1","5","fixed","5","10","28","orange-191","orange","1599","sampling-task","16","3763542","0.0-5.0-0.4-0.4","104","6fe67c9p","high"
"2","1","free","220","96","92","yellow-100","yellow","6724","sampling-task","19","3906781","0.0-5.0-0.5-0.5","104","6fe67c9p","high"
"2","2","free","220","96","109","yellow-53","yellow","1014","sampling-task","20","3910605","0.0-5.0-0.6-0.6","104","6fe67c9p","high"
"2","3","free","220","96","88","yellow-79","yellow","1062","sampling-task","21","3913389","0.0-5.0-0.7-0.7","104","6fe67c9p","high"
"2","4","free","220","96","67","yellow-194","yellow","1014","sampling-task","22","3916453","0.0-5.0-0.8-0.8","104","6fe67c9p","high"
"2","5","free","220","96","94","yellow-64","yellow","1078","sampling-task","23","3918965","0.0-5.0-0.9-0.9","104","6fe67c9p","high"
"2","6","free","220","96","100","yellow-163","yellow","926","sampling-task","24","3921629","0.0-5.0-0.10-0.10","104","6fe67c9p","high"
"2","7","free","220","96","100","yellow-116","yellow","782","sampling-task","25","3923997","0.0-5.0-0.11-0.11","104","6fe67c9p","high"
"2","8","free","220","96","108","yellow-90","yellow","742","sampling-task","26","3926117","0.0-5.0-0.12-0.12","104","6fe67c9p","high"
"2","9","free","220","96","86","yellow-156","yellow","838","sampling-task","27","3928781","0.0-5.0-0.13-0.13","104","6fe67c9p","high"
"2","10","free","220","96","87","yellow-56","yellow","1046","sampling-task","28","3931364","0.0-5.0-0.14-0.14","104","6fe67c9p","high"
"2","11","free","220","96","94","yellow-23","yellow","895","sampling-task","29","3934236","0.0-5.0-0.15-0.15","104","6fe67c9p","high"
"2","12","free","220","96","113","yellow-211","yellow","870","sampling-task","30","3936620","0.0-5.0-0.16-0.16","104","6fe67c9p","high"
"2","13","free","220","96","105","yellow-55","yellow","767","sampling-task","31","3938740","0.0-5.0-0.17-0.17","104","6fe67c9p","high"
"2","14","free","220","96","87","yellow-66","yellow","606","sampling-task","32","3942356","0.0-5.0-0.18-0.18","104","6fe67c9p","high"
"2","15","free","220","96","94","yellow-74","yellow","735","sampling-task","33","3945172","0.0-5.0-0.19-0.19","104","6fe67c9p","high"
"2","16","free","220","96","107","yellow-214","yellow","510","sampling-task","34","3947524","0.0-5.0-0.20-0.20","104","6fe67c9p","high"
"2","17","free","220","96","92","yellow-199","yellow","663","sampling-task","35","3949772","0.0-5.0-0.21-0.21","104","6fe67c9p","high"
"2","18","free","220","96","127","yellow-40","yellow","583","sampling-task","36","3951916","0.0-5.0-0.22-0.22","104","6fe67c9p","high"
"2","19","free","220","96","128","yellow-63","yellow","479","sampling-task","37","3954068","0.0-5.0-0.23-0.23","104","6fe67c9p","high"
"2","20","free","220","96","96","yellow-161","yellow","679","sampling-task","38","3958988","0.0-5.0-0.24-0.24","104","6fe67c9p","high"
"2","21","free","220","96","100","yellow-10","yellow","694","sampling-task","39","3961492","0.0-5.0-0.25-0.25","104","6fe67c9p","high"
"2","22","free","220","96","111","yellow-198","yellow","726","sampling-task","40","3964588","0.0-5.0-0.26-0.26","104","6fe67c9p","high"
"2","23","free","220","96","95","yellow-208","yellow","839","sampling-task","41","3966972","0.0-5.0-0.27-0.27","104","6fe67c9p","high"
"2","24","free","220","96","71","yellow-193","yellow","614","sampling-task","42","3969204","0.0-5.0-0.28-0.28","104","6fe67c9p","high"
"2","25","free","220","96","128","yellow-66","yellow","622","sampling-task","43","3971388","0.0-5.0-0.29-0.29","104","6fe67c9p","high"
"2","26","free","220","96","120","yellow-188","yellow","614","sampling-task","44","3974804","0.0-5.0-0.30-0.30","104","6fe67c9p","high"
"2","27","free","220","96","100","yellow-181","yellow","862","sampling-task","45","3977580","0.0-5.0-0.31-0.31","104","6fe67c9p","high"
"2","28","free","220","96","94","yellow-40","yellow","590","sampling-task","46","3979516","0.0-5.0-0.32-0.32","104","6fe67c9p","high"
"2","29","free","220","96","79","yellow-163","yellow","678","sampling-task","47","3983388","0.0-5.0-0.33-0.33","104","6fe67c9p","high"
"2","30","free","220","96","48","yellow-204","yellow","806","sampling-task","48","3986668","0.0-5.0-0.34-0.34","104","6fe67c9p","high"
"2","31","free","220","96","67","yellow-187","yellow","757","sampling-task","49","3988948","0.0-5.0-0.35-0.35","104","6fe67c9p","high"
"2","32","free","220","96","115","yellow-205","yellow","1639","sampling-task","50","3992699","0.0-5.0-0.36-0.36","104","6fe67c9p","high"
"2","33","free","220","96","108","yellow-100","yellow","750","sampling-task","51","3994763","0.0-5.0-0.37-0.37","104","6fe67c9p","high"
"2","34","free","220","96","72","yellow-45","yellow","502","sampling-task","52","3997027","0.0-5.0-0.38-0.38","104","6fe67c9p","high"
"2","35","free","220","96","78","yellow-159","yellow","997","sampling-task","53","3999587","0.0-5.0-0.39-0.39","104","6fe67c9p","high"
"2","36","free","220","96","103","yellow-115","yellow","950","sampling-task","54","4002387","0.0-5.0-0.40-0.40","104","6fe67c9p","high"
"2","37","free","220","96","129","yellow-180","yellow","606","sampling-task","55","4004307","0.0-5.0-0.41-0.41","104","6fe67c9p","high"
"2","38","free","220","96","120","yellow-76","yellow","566","sampling-task","56","4006203","0.0-5.0-0.42-0.42","104","6fe67c9p","high"
"2","39","free","220","96","105","yellow-114","yellow","742","sampling-task","57","4008563","0.0-5.0-0.43-0.43","104","6fe67c9p","high"
"2","40","free","220","96","131","yellow-15","yellow","974","sampling-task","58","4012203","0.0-5.0-0.44-0.44","104","6fe67c9p","high"
"2","41","free","220","96","104","yellow-200","yellow","3078","sampling-task","59","4016691","0.0-5.0-0.45-0.45","104","6fe67c9p","high"
"2","42","free","220","96","117","yellow-180","yellow","782","sampling-task","60","4019131","0.0-5.0-0.46-0.46","104","6fe67c9p","high"
"2","43","free","220","96","103","yellow-79","yellow","654","sampling-task","61","4021803","0.0-5.0-0.47-0.47","104","6fe67c9p","high"
"2","44","free","220","96","59","yellow-94","yellow","686","sampling-task","62","4025387","0.0-5.0-0.48-0.48","104","6fe67c9p","high"
"2","45","free","220","96","83","yellow-207","yellow","566","sampling-task","63","4027691","0.0-5.0-0.49-0.49","104","6fe67c9p","high"
"2","46","free","220","96","106","yellow-69","yellow","950","sampling-task","64","4030027","0.0-5.0-0.50-0.50","104","6fe67c9p","high"
"2","47","free","220","96","100","yellow-136","yellow","606","sampling-task","65","4032259","0.0-5.0-0.51-0.51","104","6fe67c9p","high"
"2","48","free","220","96","97","yellow-93","yellow","2590","sampling-task","66","4036267","0.0-5.0-0.52-0.52","104","6fe67c9p","high"
"2","49","free","220","96","100","yellow-38","yellow","1166","sampling-task","67","4040051","0.0-5.0-0.53-0.53","104","6fe67c9p","high"
"2","50","free","220","96","108","yellow-206","yellow","5990","sampling-task","68","4047771","0.0-5.0-0.54-0.54","104","6fe67c9p","high"
"2","51","free","220","96","80","yellow-97","yellow","2550","sampling-task","69","4051955","0.0-5.0-0.55-0.55","104","6fe67c9p","high"
"2","52","free","220","96","97","yellow-95","yellow","3206","sampling-task","70","4056411","0.0-5.0-0.56-0.56","104","6fe67c9p","high"
"2","53","free","220","96","85","yellow-116","yellow","1726","sampling-task","71","4059603","0.0-5.0-0.57-0.57","104","6fe67c9p","high"
"2","54","free","220","96","94","yellow-213","yellow","3110","sampling-task","72","4064132","0.0-5.0-0.58-0.58","104","6fe67c9p","high"
"2","55","free","220","96","94","yellow-124","yellow","756","sampling-task","73","4066747","0.0-5.0-0.59-0.59","104","6fe67c9p","high"
"2","56","free","220","96","71","yellow-11","yellow","2269","sampling-task","74","4070515","0.0-5.0-0.60-0.60","104","6fe67c9p","high"
"2","57","free","220","96","134","yellow-22","yellow","1830","sampling-task","75","4074851","0.0-5.0-0.61-0.61","104","6fe67c9p","high"
"2","58","free","220","96","93","yellow-98","yellow","3302","sampling-task","76","4079459","0.0-5.0-0.62-0.62","104","6fe67c9p","high"
"2","59","free","220","96","105","yellow-62","yellow","2590","sampling-task","77","4083403","0.0-5.0-0.63-0.63","104","6fe67c9p","high"
"2","60","free","220","96","89","yellow-133","yellow","1765","sampling-task","78","4086659","0.0-5.0-0.64-0.64","104","6fe67c9p","high"
"2","61","free","220","96","77","yellow-25","yellow","821","sampling-task","79","4088915","0.0-5.0-0.65-0.65","104","6fe67c9p","high"
"3","1","fixed","10","117","79","red-161","red","14597","sampling-task","82","4176129","0.0-5.0-0.66-0.66","104","6fe67c9p","high"
"3","2","fixed","10","117","99","red-17","red","2054","sampling-task","83","4179897","0.0-5.0-0.67-0.67","104","6fe67c9p","high"
"3","3","fixed","10","117","102","red-41","red","2878","sampling-task","84","4185841","0.0-5.0-0.68-0.68","104","6fe67c9p","high"
"3","4","fixed","10","117","97","red-101","red","3302","sampling-task","85","4191081","0.0-5.0-0.69-0.69","104","6fe67c9p","high"
"3","5","fixed","10","117","117","red-127","red","2750","sampling-task","86","4196865","0.0-5.0-0.70-0.70","104","6fe67c9p","high"
"3","6","fixed","10","117","119","red-183","red","2990","sampling-task","87","4201401","0.0-5.0-0.71-0.71","104","6fe67c9p","high"
"3","7","fixed","10","117","145","red-4","red","3206","sampling-task","88","4206873","0.0-5.0-0.72-0.72","104","6fe67c9p","high"
"3","8","fixed","10","117","71","red-112","red","1638","sampling-task","89","4210498","0.0-5.0-0.73-0.73","104","6fe67c9p","high"
"3","9","fixed","10","117","144","red-31","red","2189","sampling-task","90","4215465","0.0-5.0-0.74-0.74","104","6fe67c9p","high"
"3","10","fixed","10","117","116","red-89","red","1742","sampling-task","91","4218977","0.0-5.0-0.75-0.75","104","6fe67c9p","high"
"4","1","free","220","37","86","green-2","green","7285","sampling-task","94","4274497","0.0-5.0-0.76-0.76","104","6fe67c9p","high"
"4","2","free","220","37","67","green-93","green","1054","sampling-task","95","4278432","0.0-5.0-0.77-0.77","104","6fe67c9p","high"
"4","3","free","220","37","48","green-145","green","3102","sampling-task","96","4286216","0.0-5.0-0.78-0.78","104","6fe67c9p","high"
"4","4","free","220","37","35","green-180","green","4038","sampling-task","97","4291856","0.0-5.0-0.79-0.79","104","6fe67c9p","high"
"4","5","free","220","37","54","green-181","green","3590","sampling-task","98","4297192","0.0-5.0-0.80-0.80","104","6fe67c9p","high"
"4","6","free","220","37","36","green-140","green","5342","sampling-task","99","4304271","0.0-5.0-0.81-0.81","104","6fe67c9p","high"
"4","7","free","220","37","68","green-58","green","4109","sampling-task","100","4309975","0.0-5.0-0.82-0.82","104","6fe67c9p","high"
"4","8","free","220","37","32","green-8","green","2549","sampling-task","101","4316279","0.0-5.0-0.83-0.83","104","6fe67c9p","high"
"4","9","free","220","37","60","green-14","green","3661","sampling-task","102","4322423","0.0-5.0-0.84-0.84","104","6fe67c9p","high"
"4","10","free","220","37","39","green-68","green","1877","sampling-task","103","4325927","0.0-5.0-0.85-0.85","104","6fe67c9p","high"
"4","11","free","220","37","42","green-118","green","7254","sampling-task","104","4334711","0.0-5.0-0.86-0.86","104","6fe67c9p","high"
"4","12","free","220","37","19","green-46","green","3350","sampling-task","105","4340111","0.0-5.0-0.87-0.87","104","6fe67c9p","high"
"4","13","free","220","37","32","green-92","green","6533","sampling-task","106","4349023","0.0-5.0-0.88-0.88","104","6fe67c9p","high"
"4","14","free","220","37","46","green-218","green","3261","sampling-task","107","4353879","0.0-5.0-0.89-0.89","104","6fe67c9p","high"
"4","15","free","220","37","64","green-19","green","5405","sampling-task","108","4361359","0.0-5.0-0.90-0.90","104","6fe67c9p","high"
"4","16","free","220","37","47","green-112","green","2470","sampling-task","109","4365631","0.0-5.0-0.91-0.91","104","6fe67c9p","high"
"4","17","free","220","37","35","green-96","green","2414","sampling-task","110","4373215","0.0-5.0-0.92-0.92","104","6fe67c9p","high"
"4","18","free","220","37","-6","green-11","green","1590","sampling-task","111","4378095","0.0-5.0-0.93-0.93","104","6fe67c9p","high"
"4","19","free","220","37","47","green-109","green","1870","sampling-task","112","4381391","0.0-5.0-0.94-0.94","104","6fe67c9p","high"
"4","20","free","220","37","34","green-186","green","2863","sampling-task","113","4386679","0.0-5.0-0.95-0.95","104","6fe67c9p","high"
"4","21","free","220","37","51","green-190","green","1070","sampling-task","114","4390703","0.0-5.0-0.96-0.96","104","6fe67c9p","high"
"4","22","free","220","37","29","green-193","green","1742","sampling-task","115","4395231","0.0-5.0-0.97-0.97","104","6fe67c9p","high"
"4","23","free","220","37","46","green-35","green","1581","sampling-task","116","4399607","0.0-5.0-0.98-0.98","104","6fe67c9p","high"
"4","24","free","220","37","30","green-27","green","1142","sampling-task","117","4403079","0.0-5.0-0.99-0.99","104","6fe67c9p","high"
"4","25","free","220","37","44","green-194","green","1230","sampling-task","118","4405735","0.0-5.0-0.100-0.100","104","6fe67c9p","high"
"4","26","free","220","37","30","green-219","green","774","sampling-task","119","4407615","0.0-5.0-0.101-0.101","104","6fe67c9p","high"
"4","27","free","220","37","35","green-53","green","686","sampling-task","120","4409367","0.0-5.0-0.102-0.102","104","6fe67c9p","high"
"4","28","free","220","37","15","green-15","green","694","sampling-task","121","4411575","0.0-5.0-0.103-0.103","104","6fe67c9p","high"
"4","29","free","220","37","45","green-42","green","798","sampling-task","122","4414007","0.0-5.0-0.104-0.104","104","6fe67c9p","high"
"4","30","free","220","37","40","green-6","green","958","sampling-task","123","4416703","0.0-5.0-0.105-0.105","104","6fe67c9p","high"
"4","31","free","220","37","43","green-105","green","902","sampling-task","124","4418999","0.0-5.0-0.106-0.106","104","6fe67c9p","high"
"4","32","free","220","37","16","green-32","green","1581","sampling-task","125","4422551","0.0-5.0-0.107-0.107","104","6fe67c9p","high"
"4","33","free","220","37","52","green-155","green","1213","sampling-task","126","4425358","0.0-5.0-0.108-0.108","104","6fe67c9p","high"
"4","34","free","220","37","31","green-47","green","2125","sampling-task","127","4429038","0.0-5.0-0.109-0.109","104","6fe67c9p","high"
"4","35","free","220","37","38","green-96","green","925","sampling-task","128","4431270","0.0-5.0-0.110-0.110","104","6fe67c9p","high"
"4","36","free","220","37","46","green-154","green","1038","sampling-task","129","4433886","0.0-5.0-0.111-0.111","104","6fe67c9p","high"
"4","37","free","220","37","30","green-210","green","1222","sampling-task","130","4436630","0.0-5.0-0.112-0.112","104","6fe67c9p","high"
"4","38","free","220","37","47","green-158","green","1006","sampling-task","131","4439079","0.0-5.0-0.113-0.113","104","6fe67c9p","high"
"4","39","free","220","37","62","green-38","green","1486","sampling-task","132","4441806","0.0-5.0-0.114-0.114","104","6fe67c9p","high"
"4","40","free","220","37","56","green-207","green","1014","sampling-task","133","4444190","0.0-5.0-0.115-0.115","104","6fe67c9p","high"
"4","41","free","220","37","43","green-174","green","3774","sampling-task","134","4449231","0.0-5.0-0.116-0.116","104","6fe67c9p","high"
"4","42","free","220","37","66","green-75","green","2150","sampling-task","135","4452919","0.0-5.0-0.117-0.117","104","6fe67c9p","high"
"4","43","free","220","37","13","green-59","green","3581","sampling-task","136","4458374","0.0-5.0-0.118-0.118","104","6fe67c9p","high"
"4","44","free","220","37","70","green-192","green","1446","sampling-task","137","4461966","0.0-5.0-0.119-0.119","104","6fe67c9p","high"
"4","45","free","220","37","30","green-178","green","918","sampling-task","138","4464254","0.0-5.0-0.120-0.120","104","6fe67c9p","high"
"4","46","free","220","37","26","green-26","green","1038","sampling-task","139","4466462","0.0-5.0-0.121-0.121","104","6fe67c9p","high"
"4","47","free","220","37","64","green-48","green","1462","sampling-task","140","4470342","0.0-5.0-0.122-0.122","104","6fe67c9p","high"
"4","48","free","220","37","53","green-60","green","1814","sampling-task","141","4474470","0.0-5.0-0.123-0.123","104","6fe67c9p","high"
"4","49","free","220","37","35","green-21","green","1398","sampling-task","142","4477686","0.0-5.0-0.124-0.124","104","6fe67c9p","high"
"5","1","fixed","20","77","60","blue-215","blue","7413","sampling-task","145","4530070","0.0-5.0-0.125-0.125","104","6fe67c9p","high"
"5","2","fixed","20","77","73","blue-195","blue","1253","sampling-task","146","4533078","0.0-5.0-0.126-0.126","104","6fe67c9p","high"
"5","3","fixed","20","77","110","blue-24","blue","925","sampling-task","147","4535502","0.0-5.0-0.127-0.127","104","6fe67c9p","high"
"5","4","fixed","20","77","76","blue-187","blue","1142","sampling-task","148","4538182","0.0-5.0-0.128-0.128","104","6fe67c9p","high"
"5","5","fixed","20","77","41","blue-46","blue","1558","sampling-task","149","4541094","0.0-5.0-0.129-0.129","104","6fe67c9p","high"
"5","6","fixed","20","77","112","blue-138","blue","1773","sampling-task","150","4544788","0.0-5.0-0.130-0.130","104","6fe67c9p","high"
"5","7","fixed","20","77","66","blue-24","blue","1086","sampling-task","151","4548332","0.0-5.0-0.131-0.131","104","6fe67c9p","high"
"5","8","fixed","20","77","76","blue-2","blue","1461","sampling-task","152","4553868","0.0-5.0-0.132-0.132","104","6fe67c9p","high"
"5","9","fixed","20","77","79","blue-208","blue","2806","sampling-task","153","4558396","0.0-5.0-0.133-0.133","104","6fe67c9p","high"
"5","10","fixed","20","77","91","blue-120","blue","7926","sampling-task","154","4567548","0.0-5.0-0.134-0.134","104","6fe67c9p","high"
"5","11","fixed","20","77","85","blue-5","blue","4013","sampling-task","155","4573940","0.0-5.0-0.135-0.135","104","6fe67c9p","high"
"5","12","fixed","20","77","55","blue-27","blue","3094","sampling-task","156","4578349","0.0-5.0-0.136-0.136","104","6fe67c9p","high"
"5","13","fixed","20","77","90","blue-143","blue","2437","sampling-task","157","4582268","0.0-5.0-0.137-0.137","104","6fe67c9p","high"
"5","14","fixed","20","77","76","blue-101","blue","2654","sampling-task","158","4586317","0.0-5.0-0.138-0.138","104","6fe67c9p","high"
"5","15","fixed","20","77","76","blue-170","blue","5590","sampling-task","159","4593116","0.0-5.0-0.139-0.139","104","6fe67c9p","high"
"5","16","fixed","20","77","88","blue-143","blue","5653","sampling-task","160","4600308","0.0-5.0-0.140-0.140","104","6fe67c9p","high"
"5","17","fixed","20","77","57","blue-188","blue","6078","sampling-task","161","4608269","0.0-5.0-0.141-0.141","104","6fe67c9p","high"
"5","18","fixed","20","77","78","blue-4","blue","2341","sampling-task","162","4611964","0.0-5.0-0.142-0.142","104","6fe67c9p","high"
"5","19","fixed","20","77","66","blue-23","blue","3062","sampling-task","163","4616668","0.0-5.0-0.143-0.143","104","6fe67c9p","high"
"5","20","fixed","20","77","75","blue-155","blue","5421","sampling-task","164","4623524","0.0-5.0-0.144-0.144","104","6fe67c9p","high"
"6","1","free","220","54","30","purple-43","purple","4437","sampling-task","167","4655324","0.0-5.0-0.145-0.145","104","6fe67c9p","high"
"6","2","free","220","54","56","purple-118","purple","3534","sampling-task","168","4660244","0.0-5.0-0.146-0.146","104","6fe67c9p","high"
"6","3","free","220","54","26","purple-131","purple","2766","sampling-task","169","4664956","0.0-5.0-0.147-0.147","104","6fe67c9p","high"
"6","4","free","220","54","70","purple-101","purple","3213","sampling-task","170","4683948","0.0-5.0-0.148-0.148","104","6fe67c9p","high"
"6","5","free","220","54","46","purple-118","purple","2021","sampling-task","171","4687292","0.0-5.0-0.149-0.149","104","6fe67c9p","high"
"6","6","free","220","54","48","purple-5","purple","1893","sampling-task","172","4690708","0.0-5.0-0.150-0.150","104","6fe67c9p","high"
"6","7","free","220","54","46","purple-93","purple","1245","sampling-task","173","4693404","0.0-5.0-0.151-0.151","104","6fe67c9p","high"
"6","8","free","220","54","66","purple-126","purple","1565","sampling-task","174","4696356","0.0-5.0-0.152-0.152","104","6fe67c9p","high"
"6","9","free","220","54","49","purple-199","purple","1493","sampling-task","175","4699228","0.0-5.0-0.153-0.153","104","6fe67c9p","high"
"6","10","free","220","54","42","purple-175","purple","3614","sampling-task","176","4704620","0.0-5.0-0.154-0.154","104","6fe67c9p","high"
"6","11","free","220","54","32","purple-205","purple","1157","sampling-task","177","4711356","0.0-5.0-0.155-0.155","104","6fe67c9p","high"
"6","12","free","220","54","74","purple-211","purple","1157","sampling-task","178","4714156","0.0-5.0-0.156-0.156","104","6fe67c9p","high"
"6","13","free","220","54","65","purple-134","purple","773","sampling-task","179","4716396","0.0-5.0-0.157-0.157","104","6fe67c9p","high"
"6","14","free","220","54","20","purple-85","purple","1421","sampling-task","180","4721324","0.0-5.0-0.158-0.158","104","6fe67c9p","high"
"6","15","free","220","54","60","purple-209","purple","997","sampling-task","181","4725211","0.0-5.0-0.159-0.159","104","6fe67c9p","high"
"6","16","free","220","54","32","purple-68","purple","1222","sampling-task","182","4728011","0.0-5.0-0.160-0.160","104","6fe67c9p","high"
"6","17","free","220","54","109","purple-44","purple","854","sampling-task","183","4731339","0.0-5.0-0.161-0.161","104","6fe67c9p","high"
"6","18","free","220","54","64","purple-128","purple","1886","sampling-task","184","4735507","0.0-5.0-0.162-0.162","104","6fe67c9p","high"
"6","19","free","220","54","34","purple-132","purple","853","sampling-task","185","4737947","0.0-5.0-0.163-0.163","104","6fe67c9p","high"
"6","20","free","220","54","53","purple-115","purple","966","sampling-task","186","4741763","0.0-5.0-0.164-0.164","104","6fe67c9p","high"
"6","21","free","220","54","34","purple-179","purple","1213","sampling-task","187","4745059","0.0-5.0-0.165-0.165","104","6fe67c9p","high"
"6","22","free","220","54","74","purple-179","purple","1181","sampling-task","188","4749259","0.0-5.0-0.166-0.166","104","6fe67c9p","high"
"6","23","free","220","54","49","purple-23","purple","1277","sampling-task","189","4752499","0.0-5.0-0.167-0.167","104","6fe67c9p","high"
