"round_number","sample_number","sampling_type","nSamples","mean","feedback","stimulus","stimulus_colour","rt","trial_type","trial_index","time_elapsed","internal_node_id","participant","randomID","condition"
"1","1","fixed","20","90","88","green-88","green","7017","sampling-task","6","343877","0.0-5.0-0.0-0.0","63","fd8wv17e","high"
"1","2","fixed","20","90","99","green-55","green","7261","sampling-task","7","354316","0.0-5.0-0.1-0.1","63","fd8wv17e","high"
"1","3","fixed","20","90","94","green-144","green","3854","sampling-task","8","362956","0.0-5.0-0.2-0.2","63","fd8wv17e","high"
"1","4","fixed","20","90","69","green-90","green","4326","sampling-task","9","369796","0.0-5.0-0.3-0.3","63","fd8wv17e","high"
"1","5","fixed","20","90","107","green-65","green","1254","sampling-task","10","373236","0.0-5.0-0.4-0.4","63","fd8wv17e","high"
"1","6","fixed","20","90","105","green-6","green","2615","sampling-task","11","378060","0.0-5.0-0.5-0.5","63","fd8wv17e","high"
"1","7","fixed","20","90","76","green-24","green","2182","sampling-task","12","382060","0.0-5.0-0.6-0.6","63","fd8wv17e","high"
"1","8","fixed","20","90","72","green-50","green","2502","sampling-task","13","385956","0.0-5.0-0.7-0.7","63","fd8wv17e","high"
"1","9","fixed","20","90","84","green-176","green","3662","sampling-task","14","390900","0.0-5.0-0.8-0.8","63","fd8wv17e","high"
"1","10","fixed","20","90","99","green-170","green","1086","sampling-task","15","392876","0.0-5.0-0.9-0.9","63","fd8wv17e","high"
"1","11","fixed","20","90","110","green-93","green","838","sampling-task","16","395860","0.0-5.0-0.10-0.10","63","fd8wv17e","high"
"1","12","fixed","20","90","75","green-53","green","2150","sampling-task","17","399372","0.0-5.0-0.11-0.11","63","fd8wv17e","high"
"1","13","fixed","20","90","113","green-131","green","1414","sampling-task","18","402788","0.0-5.0-0.12-0.12","63","fd8wv17e","high"
"1","14","fixed","20","90","115","green-208","green","1022","sampling-task","19","405036","0.0-5.0-0.13-0.13","63","fd8wv17e","high"
"1","15","fixed","20","90","111","green-201","green","1086","sampling-task","20","407252","0.0-5.0-0.14-0.14","63","fd8wv17e","high"
"1","16","fixed","20","90","98","green-185","green","1598","sampling-task","21","411124","0.0-5.0-0.15-0.15","63","fd8wv17e","high"
"1","17","fixed","20","90","102","green-25","green","1086","sampling-task","22","413924","0.0-5.0-0.16-0.16","63","fd8wv17e","high"
"1","18","fixed","20","90","93","green-106","green","1318","sampling-task","23","416924","0.0-5.0-0.17-0.17","63","fd8wv17e","high"
"1","19","fixed","20","90","96","green-194","green","1133","sampling-task","24","419060","0.0-5.0-0.18-0.18","63","fd8wv17e","high"
"1","20","fixed","20","90","85","green-147","green","734","sampling-task","25","420732","0.0-5.0-0.19-0.19","63","fd8wv17e","high"
"2","1","free","220","119","142","red-41","red","8013","sampling-task","28","496786","0.0-5.0-0.20-0.20","63","fd8wv17e","high"
"2","2","free","220","119","109","red-134","red","1134","sampling-task","29","500706","0.0-5.0-0.21-0.21","63","fd8wv17e","high"
"2","3","free","220","119","119","red-156","red","495","sampling-task","30","502378","0.0-5.0-0.22-0.22","63","fd8wv17e","high"
"3","1","fixed","5","78","82","orange-104","orange","4067","sampling-task","33","531129","0.0-5.0-0.23-0.23","63","fd8wv17e","high"
"3","2","fixed","5","78","111","orange-204","orange","718","sampling-task","34","532985","0.0-5.0-0.24-0.24","63","fd8wv17e","high"
"3","3","fixed","5","78","62","orange-46","orange","910","sampling-task","35","535161","0.0-5.0-0.25-0.25","63","fd8wv17e","high"
"3","4","fixed","5","78","80","orange-124","orange","1062","sampling-task","36","537369","0.0-5.0-0.26-0.26","63","fd8wv17e","high"
"3","5","fixed","5","78","87","orange-115","orange","686","sampling-task","37","539193","0.0-5.0-0.27-0.27","63","fd8wv17e","high"
"4","1","free","220","51","52","yellow-2","yellow","4676","sampling-task","40","568073","0.0-5.0-0.28-0.28","63","fd8wv17e","high"
"4","2","free","220","51","110","yellow-11","yellow","678","sampling-task","41","569745","0.0-5.0-0.29-0.29","63","fd8wv17e","high"
"4","3","free","220","51","46","yellow-22","yellow","526","sampling-task","42","571209","0.0-5.0-0.30-0.30","63","fd8wv17e","high"
"4","4","free","220","51","45","yellow-26","yellow","462","sampling-task","43","572537","0.0-5.0-0.31-0.31","63","fd8wv17e","high"
"4","5","free","220","51","55","yellow-192","yellow","438","sampling-task","44","574073","0.0-5.0-0.32-0.32","63","fd8wv17e","high"
"4","6","free","220","51","47","yellow-45","yellow","469","sampling-task","45","575433","0.0-5.0-0.33-0.33","63","fd8wv17e","high"
"4","7","free","220","51","49","yellow-75","yellow","358","sampling-task","46","576609","0.0-5.0-0.34-0.34","63","fd8wv17e","high"
"4","8","free","220","51","41","yellow-59","yellow","422","sampling-task","47","577905","0.0-5.0-0.35-0.35","63","fd8wv17e","high"
"4","9","free","220","51","27","yellow-114","yellow","390","sampling-task","48","579153","0.0-5.0-0.36-0.36","63","fd8wv17e","high"
"4","10","free","220","51","81","yellow-156","yellow","421","sampling-task","49","580449","0.0-5.0-0.37-0.37","63","fd8wv17e","high"
"4","11","free","220","51","48","yellow-58","yellow","438","sampling-task","50","582049","0.0-5.0-0.38-0.38","63","fd8wv17e","high"
"5","1","fixed","10","14","4","purple-66","purple","1661","sampling-task","53","613759","0.0-5.0-0.39-0.39","63","fd8wv17e","high"
"5","2","fixed","10","14","10","purple-182","purple","535","sampling-task","54","615239","0.0-5.0-0.40-0.40","63","fd8wv17e","high"
"5","3","fixed","10","14","8","purple-148","purple","471","sampling-task","55","616591","0.0-5.0-0.41-0.41","63","fd8wv17e","high"
"5","4","fixed","10","14","1","purple-75","purple","511","sampling-task","56","617983","0.0-5.0-0.42-0.42","63","fd8wv17e","high"
"5","5","fixed","10","14","-22","purple-127","purple","455","sampling-task","57","620015","0.0-5.0-0.43-0.43","63","fd8wv17e","high"
"5","6","fixed","10","14","6","purple-170","purple","583","sampling-task","58","621503","0.0-5.0-0.44-0.44","63","fd8wv17e","high"
"5","7","fixed","10","14","38","purple-87","purple","519","sampling-task","59","622895","0.0-5.0-0.45-0.45","63","fd8wv17e","high"
"5","8","fixed","10","14","15","purple-143","purple","519","sampling-task","60","624439","0.0-5.0-0.46-0.46","63","fd8wv17e","high"
"5","9","fixed","10","14","14","purple-109","purple","591","sampling-task","61","625879","0.0-5.0-0.47-0.47","63","fd8wv17e","high"
"5","10","fixed","10","14","19","purple-31","purple","583","sampling-task","62","627335","0.0-5.0-0.48-0.48","63","fd8wv17e","high"
"6","1","free","220","32","38","blue-124","blue","3220","sampling-task","65","656478","0.0-5.0-0.49-0.49","63","fd8wv17e","high"
"6","2","free","220","32","51","blue-68","blue","414","sampling-task","66","657894","0.0-5.0-0.50-0.50","63","fd8wv17e","high"
"6","3","free","220","32","46","blue-107","blue","374","sampling-task","67","659190","0.0-5.0-0.51-0.51","63","fd8wv17e","high"
"6","4","free","220","32","30","blue-117","blue","349","sampling-task","68","660566","0.0-5.0-0.52-0.52","63","fd8wv17e","high"
"6","5","free","220","32","2","blue-142","blue","382","sampling-task","69","661830","0.0-5.0-0.53-0.53","63","fd8wv17e","high"
"6","6","free","220","32","40","blue-205","blue","406","sampling-task","70","663270","0.0-5.0-0.54-0.54","63","fd8wv17e","high"
"6","7","free","220","32","37","blue-126","blue","494","sampling-task","71","664614","0.0-5.0-0.55-0.55","63","fd8wv17e","high"
"6","8","free","220","32","47","blue-160","blue","430","sampling-task","72","665942","0.0-5.0-0.56-0.56","63","fd8wv17e","high"
"6","9","free","220","32","47","blue-167","blue","445","sampling-task","73","667342","0.0-5.0-0.57-0.57","63","fd8wv17e","high"
"6","10","free","220","32","39","blue-192","blue","358","sampling-task","74","668830","0.0-5.0-0.58-0.58","63","fd8wv17e","high"
"6","11","free","220","32","37","blue-58","blue","350","sampling-task","75","670022","0.0-5.0-0.59-0.59","63","fd8wv17e","high"
"6","12","free","220","32","53","blue-85","blue","502","sampling-task","76","671782","0.0-5.0-0.60-0.60","63","fd8wv17e","high"
"6","13","free","220","32","30","blue-88","blue","430","sampling-task","77","673446","0.0-5.0-0.61-0.61","63","fd8wv17e","high"
"6","14","free","220","32","68","blue-93","blue","446","sampling-task","78","674814","0.0-5.0-0.62-0.62","63","fd8wv17e","high"
"6","15","free","220","32","35","blue-59","blue","414","sampling-task","79","676454","0.0-5.0-0.63-0.63","63","fd8wv17e","high"
"6","16","free","220","32","14","blue-218","blue","382","sampling-task","80","677990","0.0-5.0-0.64-0.64","63","fd8wv17e","high"
"6","17","free","220","32","24","blue-108","blue","446","sampling-task","81","679374","0.0-5.0-0.65-0.65","63","fd8wv17e","high"
"6","18","free","220","32","13","blue-70","blue","454","sampling-task","82","681062","0.0-5.0-0.66-0.66","63","fd8wv17e","high"
