"round_number","sample_number","sampling_type","nSamples","mean","feedback","stimulus","stimulus_colour","rt","trial_type","trial_index","time_elapsed","internal_node_id","participant","randomID","condition"
"1","1","fixed","20","59","64","red-163","red","15797","sampling-task","6","322418","0.0-5.0-0.0-0.0","2","s18z8yvq","low"
"1","2","fixed","20","59","85","red-163","red","3638","sampling-task","7","328809","0.0-5.0-0.1-0.1","2","s18z8yvq","low"
"1","3","fixed","20","59","48","red-163","red","2407","sampling-task","8","334057","0.0-5.0-0.2-0.2","2","s18z8yvq","low"
"1","4","fixed","20","59","51","red-163","red","4749","sampling-task","9","340769","0.0-5.0-0.3-0.3","2","s18z8yvq","low"
"1","5","fixed","20","59","103","red-163","red","1550","sampling-task","10","344097","0.0-5.0-0.4-0.4","2","s18z8yvq","low"
"1","6","fixed","20","59","70","red-163","red","1037","sampling-task","11","348161","0.0-5.0-0.5-0.5","2","s18z8yvq","low"
"1","7","fixed","20","59","64","red-163","red","1206","sampling-task","12","351593","0.0-5.0-0.6-0.6","2","s18z8yvq","low"
"1","8","fixed","20","59","54","red-163","red","1653","sampling-task","13","355177","0.0-5.0-0.7-0.7","2","s18z8yvq","low"
"1","9","fixed","20","59","46","red-163","red","1382","sampling-task","14","358137","0.0-5.0-0.8-0.8","2","s18z8yvq","low"
"1","10","fixed","20","59","97","red-163","red","1094","sampling-task","15","361025","0.0-5.0-0.9-0.9","2","s18z8yvq","low"
"1","11","fixed","20","59","43","red-163","red","1197","sampling-task","16","363786","0.0-5.0-0.10-0.10","2","s18z8yvq","low"
"1","12","fixed","20","59","31","red-163","red","885","sampling-task","17","366129","0.0-5.0-0.11-0.11","2","s18z8yvq","low"
"1","13","fixed","20","59","30","red-163","red","1085","sampling-task","18","368722","0.0-5.0-0.12-0.12","2","s18z8yvq","low"
"1","14","fixed","20","59","56","red-163","red","861","sampling-task","19","371065","0.0-5.0-0.13-0.13","2","s18z8yvq","low"
"1","15","fixed","20","59","64","red-163","red","718","sampling-task","20","373377","0.0-5.0-0.14-0.14","2","s18z8yvq","low"
"1","16","fixed","20","59","50","red-163","red","807","sampling-task","21","376017","0.0-5.0-0.15-0.15","2","s18z8yvq","low"
"1","17","fixed","20","59","49","red-163","red","719","sampling-task","22","378184","0.0-5.0-0.16-0.16","2","s18z8yvq","low"
"1","18","fixed","20","59","86","red-163","red","997","sampling-task","23","380568","0.0-5.0-0.17-0.17","2","s18z8yvq","low"
"1","19","fixed","20","59","88","red-163","red","701","sampling-task","24","382760","0.0-5.0-0.18-0.18","2","s18z8yvq","low"
"1","20","fixed","20","59","66","red-163","red","1278","sampling-task","25","385168","0.0-5.0-0.19-0.19","2","s18z8yvq","low"
"2","1","free","220","114","144","yellow-216","yellow","5596","sampling-task","28","495790","0.0-5.0-0.20-0.20","2","s18z8yvq","low"
"2","2","free","220","114","93","yellow-216","yellow","1118","sampling-task","29","498566","0.0-5.0-0.21-0.21","2","s18z8yvq","low"
"2","3","free","220","114","97","yellow-216","yellow","846","sampling-task","30","503022","0.0-5.0-0.22-0.22","2","s18z8yvq","low"
"2","4","free","220","114","111","yellow-216","yellow","1062","sampling-task","31","506006","0.0-5.0-0.23-0.23","2","s18z8yvq","low"
"2","5","free","220","114","113","yellow-216","yellow","1334","sampling-task","32","508502","0.0-5.0-0.24-0.24","2","s18z8yvq","low"
"2","6","free","220","114","116","yellow-216","yellow","734","sampling-task","33","510454","0.0-5.0-0.25-0.25","2","s18z8yvq","low"
"2","7","free","220","114","109","yellow-216","yellow","678","sampling-task","34","512734","0.0-5.0-0.26-0.26","2","s18z8yvq","low"
"2","8","free","220","114","128","yellow-216","yellow","686","sampling-task","35","514678","0.0-5.0-0.27-0.27","2","s18z8yvq","low"
"2","9","free","220","114","139","yellow-216","yellow","822","sampling-task","36","516574","0.0-5.0-0.28-0.28","2","s18z8yvq","low"
"2","10","free","220","114","105","yellow-216","yellow","654","sampling-task","37","518398","0.0-5.0-0.29-0.29","2","s18z8yvq","low"
"2","11","free","220","114","103","yellow-216","yellow","702","sampling-task","38","520958","0.0-5.0-0.30-0.30","2","s18z8yvq","low"
"2","12","free","220","114","134","yellow-216","yellow","493","sampling-task","39","522734","0.0-5.0-0.31-0.31","2","s18z8yvq","low"
"2","13","free","220","114","123","yellow-216","yellow","630","sampling-task","40","524502","0.0-5.0-0.32-0.32","2","s18z8yvq","low"
"2","14","free","220","114","139","yellow-216","yellow","582","sampling-task","41","526046","0.0-5.0-0.33-0.33","2","s18z8yvq","low"
"2","15","free","220","114","108","yellow-216","yellow","542","sampling-task","42","527582","0.0-5.0-0.34-0.34","2","s18z8yvq","low"
"2","16","free","220","114","110","yellow-216","yellow","534","sampling-task","43","529174","0.0-5.0-0.35-0.35","2","s18z8yvq","low"
"2","17","free","220","114","123","yellow-216","yellow","502","sampling-task","44","531110","0.0-5.0-0.36-0.36","2","s18z8yvq","low"
"3","1","fixed","5","78","64","green-182","green","3284","sampling-task","47","566516","0.0-5.0-0.37-0.37","2","s18z8yvq","low"
"3","2","fixed","5","78","69","green-182","green","573","sampling-task","48","568748","0.0-5.0-0.38-0.38","2","s18z8yvq","low"
"3","3","fixed","5","78","56","green-182","green","566","sampling-task","49","570812","0.0-5.0-0.39-0.39","2","s18z8yvq","low"
"3","4","fixed","5","78","77","green-182","green","742","sampling-task","50","573532","0.0-5.0-0.40-0.40","2","s18z8yvq","low"
"3","5","fixed","5","78","89","green-182","green","606","sampling-task","51","575364","0.0-5.0-0.41-0.41","2","s18z8yvq","low"
"4","1","free","220","95","118","blue-136","blue","4293","sampling-task","54","606979","0.0-5.0-0.42-0.42","2","s18z8yvq","low"
"4","2","free","220","95","70","blue-136","blue","622","sampling-task","55","609955","0.0-5.0-0.43-0.43","2","s18z8yvq","low"
"4","3","free","220","95","105","blue-136","blue","533","sampling-task","56","611595","0.0-5.0-0.44-0.44","2","s18z8yvq","low"
"4","4","free","220","95","69","blue-136","blue","567","sampling-task","57","614219","0.0-5.0-0.45-0.45","2","s18z8yvq","low"
"4","5","free","220","95","80","blue-136","blue","1174","sampling-task","58","617627","0.0-5.0-0.46-0.46","2","s18z8yvq","low"
"4","6","free","220","95","99","blue-136","blue","558","sampling-task","59","619339","0.0-5.0-0.47-0.47","2","s18z8yvq","low"
"4","7","free","220","95","118","blue-136","blue","502","sampling-task","60","621035","0.0-5.0-0.48-0.48","2","s18z8yvq","low"
"4","8","free","220","95","125","blue-136","blue","751","sampling-task","61","623067","0.0-5.0-0.49-0.49","2","s18z8yvq","low"
"4","9","free","220","95","91","blue-136","blue","782","sampling-task","62","625059","0.0-5.0-0.50-0.50","2","s18z8yvq","low"
"4","10","free","220","95","93","blue-136","blue","567","sampling-task","63","626659","0.0-5.0-0.51-0.51","2","s18z8yvq","low"
"4","11","free","220","95","120","blue-136","blue","647","sampling-task","64","629643","0.0-5.0-0.52-0.52","2","s18z8yvq","low"
"4","12","free","220","95","111","blue-136","blue","470","sampling-task","65","631731","0.0-5.0-0.53-0.53","2","s18z8yvq","low"
"4","13","free","220","95","131","blue-136","blue","518","sampling-task","66","633547","0.0-5.0-0.54-0.54","2","s18z8yvq","low"
"4","14","free","220","95","92","blue-136","blue","518","sampling-task","67","635195","0.0-5.0-0.55-0.55","2","s18z8yvq","low"
"4","15","free","220","95","72","blue-136","blue","558","sampling-task","68","636891","0.0-5.0-0.56-0.56","2","s18z8yvq","low"
"4","16","free","220","95","108","blue-136","blue","462","sampling-task","69","638507","0.0-5.0-0.57-0.57","2","s18z8yvq","low"
"4","17","free","220","95","125","blue-136","blue","486","sampling-task","70","640211","0.0-5.0-0.58-0.58","2","s18z8yvq","low"
"4","18","free","220","95","108","blue-136","blue","510","sampling-task","71","641691","0.0-5.0-0.59-0.59","2","s18z8yvq","low"
"4","19","free","220","95","122","blue-136","blue","526","sampling-task","72","643171","0.0-5.0-0.60-0.60","2","s18z8yvq","low"
"4","20","free","220","95","119","blue-136","blue","1038","sampling-task","73","645139","0.0-5.0-0.61-0.61","2","s18z8yvq","low"
"4","21","free","220","95","111","blue-136","blue","590","sampling-task","74","647195","0.0-5.0-0.62-0.62","2","s18z8yvq","low"
"5","1","fixed","10","31","40","purple-131","purple","5132","sampling-task","77","700642","0.0-5.0-0.63-0.63","2","s18z8yvq","low"
"5","2","fixed","10","31","8","purple-131","purple","661","sampling-task","78","702474","0.0-5.0-0.64-0.64","2","s18z8yvq","low"
"5","3","fixed","10","31","11","purple-131","purple","710","sampling-task","79","704554","0.0-5.0-0.65-0.65","2","s18z8yvq","low"
"5","4","fixed","10","31","21","purple-131","purple","622","sampling-task","80","706370","0.0-5.0-0.66-0.66","2","s18z8yvq","low"
"5","5","fixed","10","31","35","purple-131","purple","606","sampling-task","81","708410","0.0-5.0-0.67-0.67","2","s18z8yvq","low"
"5","6","fixed","10","31","25","purple-131","purple","646","sampling-task","82","710194","0.0-5.0-0.68-0.68","2","s18z8yvq","low"
"5","7","fixed","10","31","37","purple-131","purple","533","sampling-task","83","711938","0.0-5.0-0.69-0.69","2","s18z8yvq","low"
"5","8","fixed","10","31","2","purple-131","purple","518","sampling-task","84","713602","0.0-5.0-0.70-0.70","2","s18z8yvq","low"
"5","9","fixed","10","31","39","purple-131","purple","622","sampling-task","85","715258","0.0-5.0-0.71-0.71","2","s18z8yvq","low"
"5","10","fixed","10","31","20","purple-131","purple","614","sampling-task","86","717098","0.0-5.0-0.72-0.72","2","s18z8yvq","low"
"6","1","free","220","10","33","orange-119","orange","3028","sampling-task","89","738608","0.0-5.0-0.73-0.73","2","s18z8yvq","low"
"6","2","free","220","10","21","orange-119","orange","461","sampling-task","90","740160","0.0-5.0-0.74-0.74","2","s18z8yvq","low"
"6","3","free","220","10","36","orange-119","orange","510","sampling-task","91","742241","0.0-5.0-0.75-0.75","2","s18z8yvq","low"
"6","4","free","220","10","32","orange-119","orange","478","sampling-task","92","743904","0.0-5.0-0.76-0.76","2","s18z8yvq","low"
"6","5","free","220","10","0","orange-119","orange","550","sampling-task","93","746320","0.0-5.0-0.77-0.77","2","s18z8yvq","low"
"6","6","free","220","10","-3","orange-119","orange","477","sampling-task","94","747785","0.0-5.0-0.78-0.78","2","s18z8yvq","low"
"6","7","free","220","10","18","orange-119","orange","550","sampling-task","95","749625","0.0-5.0-0.79-0.79","2","s18z8yvq","low"
"6","8","free","220","10","36","orange-119","orange","492","sampling-task","96","751240","0.0-5.0-0.80-0.80","2","s18z8yvq","low"
"6","9","free","220","10","-3","orange-119","orange","470","sampling-task","97","752768","0.0-5.0-0.81-0.81","2","s18z8yvq","low"
"6","10","free","220","10","41","orange-119","orange","534","sampling-task","98","755008","0.0-5.0-0.82-0.82","2","s18z8yvq","low"
"6","11","free","220","10","-10","orange-119","orange","518","sampling-task","99","756553","0.0-5.0-0.83-0.83","2","s18z8yvq","low"
"6","12","free","220","10","-5","orange-119","orange","462","sampling-task","100","758136","0.0-5.0-0.84-0.84","2","s18z8yvq","low"
"6","13","free","220","10","6","orange-119","orange","494","sampling-task","101","759745","0.0-5.0-0.85-0.85","2","s18z8yvq","low"
"6","14","free","220","10","-4","orange-119","orange","518","sampling-task","102","761264","0.0-5.0-0.86-0.86","2","s18z8yvq","low"
"6","15","free","220","10","48","orange-119","orange","446","sampling-task","103","762648","0.0-5.0-0.87-0.87","2","s18z8yvq","low"
"6","16","free","220","10","10","orange-119","orange","446","sampling-task","104","764032","0.0-5.0-0.88-0.88","2","s18z8yvq","low"
"6","17","free","220","10","11","orange-119","orange","494","sampling-task","105","765769","0.0-5.0-0.89-0.89","2","s18z8yvq","low"
