"round_number","sample_number","sampling_type","nSamples","mean","feedback","stimulus","stimulus_colour","rt","trial_type","trial_index","time_elapsed","internal_node_id","participant","randomID","condition"
"1","1","fixed","5","114","144","orange-194","orange","6340","sampling-task","6","670028","0.0-5.0-0.0-0.0","103","p4xqqj45","low"
"1","2","fixed","5","114","159","orange-194","orange","3357","sampling-task","7","676499","0.0-5.0-0.1-0.1","103","p4xqqj45","low"
"1","3","fixed","5","114","117","orange-194","orange","974","sampling-task","8","680075","0.0-5.0-0.2-0.2","103","p4xqqj45","low"
"1","4","fixed","5","114","137","orange-194","orange","1134","sampling-task","9","691307","0.0-5.0-0.3-0.3","103","p4xqqj45","low"
"1","5","fixed","5","114","116","orange-194","orange","878","sampling-task","10","693627","0.0-5.0-0.4-0.4","103","p4xqqj45","low"
"2","1","free","220","58","7","yellow-83","yellow","10340","sampling-task","13","760402","0.0-5.0-0.5-0.5","103","p4xqqj45","low"
"2","2","free","220","58","85","yellow-83","yellow","589","sampling-task","14","762954","0.0-5.0-0.6-0.6","103","p4xqqj45","low"
"2","3","free","220","58","21","yellow-83","yellow","510","sampling-task","15","764506","0.0-5.0-0.7-0.7","103","p4xqqj45","low"
"2","4","free","220","58","95","yellow-83","yellow","710","sampling-task","16","766386","0.0-5.0-0.8-0.8","103","p4xqqj45","low"
"2","5","free","220","58","47","yellow-83","yellow","614","sampling-task","17","768186","0.0-5.0-0.9-0.9","103","p4xqqj45","low"
"2","6","free","220","58","66","yellow-83","yellow","814","sampling-task","18","770210","0.0-5.0-0.10-0.10","103","p4xqqj45","low"
"2","7","free","220","58","70","yellow-83","yellow","646","sampling-task","19","771954","0.0-5.0-0.11-0.11","103","p4xqqj45","low"
"2","8","free","220","58","50","yellow-83","yellow","622","sampling-task","20","773826","0.0-5.0-0.12-0.12","103","p4xqqj45","low"
"2","9","free","220","58","35","yellow-83","yellow","574","sampling-task","21","775338","0.0-5.0-0.13-0.13","103","p4xqqj45","low"
"2","10","free","220","58","17","yellow-83","yellow","622","sampling-task","22","777010","0.0-5.0-0.14-0.14","103","p4xqqj45","low"
"2","11","free","220","58","75","yellow-83","yellow","638","sampling-task","23","778882","0.0-5.0-0.15-0.15","103","p4xqqj45","low"
"3","1","fixed","20","39","53","green-73","green","3829","sampling-task","26","824969","0.0-5.0-0.16-0.16","103","p4xqqj45","low"
"3","2","fixed","20","39","54","green-73","green","461","sampling-task","27","826297","0.0-5.0-0.17-0.17","103","p4xqqj45","low"
"3","3","fixed","20","39","70","green-73","green","438","sampling-task","28","827609","0.0-5.0-0.18-0.18","103","p4xqqj45","low"
"3","4","fixed","20","39","-5","green-73","green","446","sampling-task","29","829392","0.0-5.0-0.19-0.19","103","p4xqqj45","low"
"3","5","fixed","20","39","34","green-73","green","519","sampling-task","30","830801","0.0-5.0-0.20-0.20","103","p4xqqj45","low"
"3","6","fixed","20","39","-2","green-73","green","374","sampling-task","31","832209","0.0-5.0-0.21-0.21","103","p4xqqj45","low"
"3","7","fixed","20","39","31","green-73","green","486","sampling-task","32","833937","0.0-5.0-0.22-0.22","103","p4xqqj45","low"
"3","8","fixed","20","39","18","green-73","green","670","sampling-task","33","835497","0.0-5.0-0.23-0.23","103","p4xqqj45","low"
"3","9","fixed","20","39","-28","green-73","green","510","sampling-task","34","837385","0.0-5.0-0.24-0.24","103","p4xqqj45","low"
"3","10","fixed","20","39","42","green-73","green","462","sampling-task","35","839112","0.0-5.0-0.25-0.25","103","p4xqqj45","low"
"3","11","fixed","20","39","44","green-73","green","366","sampling-task","36","840648","0.0-5.0-0.26-0.26","103","p4xqqj45","low"
"3","12","fixed","20","39","29","green-73","green","406","sampling-task","37","842080","0.0-5.0-0.27-0.27","103","p4xqqj45","low"
"3","13","fixed","20","39","13","green-73","green","366","sampling-task","38","843561","0.0-5.0-0.28-0.28","103","p4xqqj45","low"
"3","14","fixed","20","39","34","green-73","green","382","sampling-task","39","844800","0.0-5.0-0.29-0.29","103","p4xqqj45","low"
"3","15","fixed","20","39","35","green-73","green","358","sampling-task","40","846048","0.0-5.0-0.30-0.30","103","p4xqqj45","low"
"3","16","fixed","20","39","26","green-73","green","406","sampling-task","41","847328","0.0-5.0-0.31-0.31","103","p4xqqj45","low"
"3","17","fixed","20","39","31","green-73","green","351","sampling-task","42","848560","0.0-5.0-0.32-0.32","103","p4xqqj45","low"
"3","18","fixed","20","39","36","green-73","green","406","sampling-task","43","850281","0.0-5.0-0.33-0.33","103","p4xqqj45","low"
"3","19","fixed","20","39","60","green-73","green","390","sampling-task","44","851809","0.0-5.0-0.34-0.34","103","p4xqqj45","low"
"3","20","fixed","20","39","33","green-73","green","406","sampling-task","45","853120","0.0-5.0-0.35-0.35","103","p4xqqj45","low"
"4","1","free","220","77","76","blue-169","blue","4155","sampling-task","48","895568","0.0-5.0-0.36-0.36","103","p4xqqj45","low"
"4","2","free","220","77","67","blue-169","blue","550","sampling-task","49","897216","0.0-5.0-0.37-0.37","103","p4xqqj45","low"
"4","3","free","220","77","34","blue-169","blue","405","sampling-task","50","898696","0.0-5.0-0.38-0.38","103","p4xqqj45","low"
"4","4","free","220","77","82","blue-169","blue","518","sampling-task","51","900384","0.0-5.0-0.39-0.39","103","p4xqqj45","low"
"5","1","fixed","10","97","76","red-172","red","2709","sampling-task","54","942583","0.0-5.0-0.40-0.40","103","p4xqqj45","low"
"5","2","fixed","10","97","95","red-172","red","862","sampling-task","55","944375","0.0-5.0-0.41-0.41","103","p4xqqj45","low"
"5","3","fixed","10","97","117","red-172","red","558","sampling-task","56","946279","0.0-5.0-0.42-0.42","103","p4xqqj45","low"
"5","4","fixed","10","97","87","red-172","red","790","sampling-task","57","947959","0.0-5.0-0.43-0.43","103","p4xqqj45","low"
"5","5","fixed","10","97","60","red-172","red","606","sampling-task","58","949511","0.0-5.0-0.44-0.44","103","p4xqqj45","low"
"5","6","fixed","10","97","101","red-172","red","758","sampling-task","59","951559","0.0-5.0-0.45-0.45","103","p4xqqj45","low"
"5","7","fixed","10","97","92","red-172","red","854","sampling-task","60","953311","0.0-5.0-0.46-0.46","103","p4xqqj45","low"
"5","8","fixed","10","97","110","red-172","red","518","sampling-task","61","954767","0.0-5.0-0.47-0.47","103","p4xqqj45","low"
"5","9","fixed","10","97","127","red-172","red","670","sampling-task","62","956391","0.0-5.0-0.48-0.48","103","p4xqqj45","low"
"5","10","fixed","10","97","65","red-172","red","734","sampling-task","63","958063","0.0-5.0-0.49-0.49","103","p4xqqj45","low"
"6","1","free","220","13","-8","purple-197","purple","9356","sampling-task","66","1021590","0.0-5.0-0.50-0.50","103","p4xqqj45","low"
"6","2","free","220","13","33","purple-197","purple","406","sampling-task","67","1022862","0.0-5.0-0.51-0.51","103","p4xqqj45","low"
"6","3","free","220","13","31","purple-197","purple","375","sampling-task","68","1024094","0.0-5.0-0.52-0.52","103","p4xqqj45","low"
"6","4","free","220","13","9","purple-197","purple","367","sampling-task","69","1025622","0.0-5.0-0.53-0.53","103","p4xqqj45","low"
"6","5","free","220","13","40","purple-197","purple","367","sampling-task","70","1026886","0.0-5.0-0.54-0.54","103","p4xqqj45","low"
"6","6","free","220","13","26","purple-197","purple","389","sampling-task","71","1028366","0.0-5.0-0.55-0.55","103","p4xqqj45","low"
"6","7","free","220","13","14","purple-197","purple","502","sampling-task","72","1030126","0.0-5.0-0.56-0.56","103","p4xqqj45","low"
"6","8","free","220","13","11","purple-197","purple","502","sampling-task","73","1031486","0.0-5.0-0.57-0.57","103","p4xqqj45","low"
"6","9","free","220","13","9","purple-197","purple","367","sampling-task","74","1033014","0.0-5.0-0.58-0.58","103","p4xqqj45","low"
"6","10","free","220","13","9","purple-197","purple","446","sampling-task","75","1034342","0.0-5.0-0.59-0.59","103","p4xqqj45","low"
"6","11","free","220","13","11","purple-197","purple","429","sampling-task","76","1035686","0.0-5.0-0.60-0.60","103","p4xqqj45","low"
"6","12","free","220","13","25","purple-197","purple","422","sampling-task","77","1037781","0.0-5.0-0.61-0.61","103","p4xqqj45","low"
"6","13","free","220","13","36","purple-197","purple","381","sampling-task","78","1039293","0.0-5.0-0.62-0.62","103","p4xqqj45","low"
"6","14","free","220","13","18","purple-197","purple","383","sampling-task","79","1040789","0.0-5.0-0.63-0.63","103","p4xqqj45","low"
"6","15","free","220","13","30","purple-197","purple","557","sampling-task","80","1042333","0.0-5.0-0.64-0.64","103","p4xqqj45","low"
"6","16","free","220","13","46","purple-197","purple","646","sampling-task","81","1044277","0.0-5.0-0.65-0.65","103","p4xqqj45","low"
