"round_number","sample_number","sampling_type","nSamples","mean","feedback","stimulus","stimulus_colour","rt","trial_type","trial_index","time_elapsed","internal_node_id","participant","randomID","condition"
"1","1","fixed","5","16","17","red-97","red","7521","sampling-task","6","754060","0.0-5.0-0.0-0.0","30","ttx9pl1m","high"
"1","2","fixed","5","16","25","red-166","red","1398","sampling-task","7","757132","0.0-5.0-0.1-0.1","30","ttx9pl1m","high"
"1","3","fixed","5","16","8","red-37","red","1054","sampling-task","8","759796","0.0-5.0-0.2-0.2","30","ttx9pl1m","high"
"1","4","fixed","5","16","24","red-16","red","5061","sampling-task","9","766500","0.0-5.0-0.3-0.3","30","ttx9pl1m","high"
"1","5","fixed","5","16","16","red-46","red","1398","sampling-task","10","769548","0.0-5.0-0.4-0.4","30","ttx9pl1m","high"
"2","1","free","220","76","75","yellow-185","yellow","6468","sampling-task","13","841115","0.0-5.0-0.5-0.5","30","ttx9pl1m","high"
"2","2","free","220","76","87","yellow-155","yellow","887","sampling-task","14","846099","0.0-5.0-0.6-0.6","30","ttx9pl1m","high"
"2","3","free","220","76","78","yellow-116","yellow","975","sampling-task","15","854012","0.0-5.0-0.7-0.7","30","ttx9pl1m","high"
"2","4","free","220","76","55","yellow-39","yellow","5614","sampling-task","16","861579","0.0-5.0-0.8-0.8","30","ttx9pl1m","high"
"2","5","free","220","76","83","yellow-185","yellow","2758","sampling-task","17","866067","0.0-5.0-0.9-0.9","30","ttx9pl1m","high"
"2","6","free","220","76","73","yellow-189","yellow","910","sampling-task","18","870163","0.0-5.0-0.10-0.10","30","ttx9pl1m","high"
"2","7","free","220","76","75","yellow-70","yellow","3255","sampling-task","19","874739","0.0-5.0-0.11-0.11","30","ttx9pl1m","high"
"2","8","free","220","76","86","yellow-203","yellow","2174","sampling-task","20","880291","0.0-5.0-0.12-0.12","30","ttx9pl1m","high"
"2","9","free","220","76","65","yellow-197","yellow","1607","sampling-task","21","883299","0.0-5.0-0.13-0.13","30","ttx9pl1m","high"
"2","10","free","220","76","66","yellow-19","yellow","2118","sampling-task","22","886955","0.0-5.0-0.14-0.14","30","ttx9pl1m","high"
"2","11","free","220","76","56","yellow-19","yellow","910","sampling-task","23","889211","0.0-5.0-0.15-0.15","30","ttx9pl1m","high"
"2","12","free","220","76","93","yellow-175","yellow","982","sampling-task","24","893091","0.0-5.0-0.16-0.16","30","ttx9pl1m","high"
"2","13","free","220","76","53","yellow-131","yellow","918","sampling-task","25","895131","0.0-5.0-0.17-0.17","30","ttx9pl1m","high"
"2","14","free","220","76","62","yellow-142","yellow","1101","sampling-task","26","898115","0.0-5.0-0.18-0.18","30","ttx9pl1m","high"
"2","15","free","220","76","50","yellow-217","yellow","710","sampling-task","27","900315","0.0-5.0-0.19-0.19","30","ttx9pl1m","high"
"2","16","free","220","76","62","yellow-202","yellow","1238","sampling-task","28","903075","0.0-5.0-0.20-0.20","30","ttx9pl1m","high"
"2","17","free","220","76","50","yellow-172","yellow","934","sampling-task","29","905931","0.0-5.0-0.21-0.21","30","ttx9pl1m","high"
"3","1","fixed","20","90","83","green-151","green","8980","sampling-task","32","950514","0.0-5.0-0.22-0.22","30","ttx9pl1m","high"
"3","2","fixed","20","90","95","green-166","green","1366","sampling-task","33","953218","0.0-5.0-0.23-0.23","30","ttx9pl1m","high"
"3","3","fixed","20","90","69","green-4","green","1046","sampling-task","34","955650","0.0-5.0-0.24-0.24","30","ttx9pl1m","high"
"3","4","fixed","20","90","103","green-33","green","1126","sampling-task","35","958042","0.0-5.0-0.25-0.25","30","ttx9pl1m","high"
"3","5","fixed","20","90","98","green-87","green","902","sampling-task","36","960442","0.0-5.0-0.26-0.26","30","ttx9pl1m","high"
"3","6","fixed","20","90","76","green-161","green","846","sampling-task","37","962378","0.0-5.0-0.27-0.27","30","ttx9pl1m","high"
"3","7","fixed","20","90","83","green-25","green","2838","sampling-task","38","966498","0.0-5.0-0.28-0.28","30","ttx9pl1m","high"
"3","8","fixed","20","90","117","green-158","green","822","sampling-task","39","970658","0.0-5.0-0.29-0.29","30","ttx9pl1m","high"
"3","9","fixed","20","90","58","green-53","green","766","sampling-task","40","972682","0.0-5.0-0.30-0.30","30","ttx9pl1m","high"
"3","10","fixed","20","90","110","green-52","green","734","sampling-task","41","974738","0.0-5.0-0.31-0.31","30","ttx9pl1m","high"
"3","11","fixed","20","90","77","green-180","green","822","sampling-task","42","976698","0.0-5.0-0.32-0.32","30","ttx9pl1m","high"
"3","12","fixed","20","90","81","green-57","green","1686","sampling-task","43","979554","0.0-5.0-0.33-0.33","30","ttx9pl1m","high"
"3","13","fixed","20","90","49","green-8","green","822","sampling-task","44","981898","0.0-5.0-0.34-0.34","30","ttx9pl1m","high"
"3","14","fixed","20","90","116","green-67","green","1494","sampling-task","45","985106","0.0-5.0-0.35-0.35","30","ttx9pl1m","high"
"3","15","fixed","20","90","88","green-96","green","1534","sampling-task","46","988562","0.0-5.0-0.36-0.36","30","ttx9pl1m","high"
"3","16","fixed","20","90","136","green-21","green","1854","sampling-task","47","991730","0.0-5.0-0.37-0.37","30","ttx9pl1m","high"
"3","17","fixed","20","90","97","green-12","green","1373","sampling-task","48","995258","0.0-5.0-0.38-0.38","30","ttx9pl1m","high"
"3","18","fixed","20","90","82","green-50","green","2478","sampling-task","49","999402","0.0-5.0-0.39-0.39","30","ttx9pl1m","high"
"3","19","fixed","20","90","95","green-139","green","878","sampling-task","50","1002090","0.0-5.0-0.40-0.40","30","ttx9pl1m","high"
"3","20","fixed","20","90","72","green-183","green","1006","sampling-task","51","1004330","0.0-5.0-0.41-0.41","30","ttx9pl1m","high"
"4","1","free","220","117","98","blue-50","blue","5556","sampling-task","54","1052042","0.0-5.0-0.42-0.42","30","ttx9pl1m","high"
"4","2","free","220","117","169","blue-97","blue","718","sampling-task","55","1054818","0.0-5.0-0.43-0.43","30","ttx9pl1m","high"
"4","3","free","220","117","73","blue-203","blue","910","sampling-task","56","1057690","0.0-5.0-0.44-0.44","30","ttx9pl1m","high"
"4","4","free","220","117","150","blue-61","blue","982","sampling-task","57","1060570","0.0-5.0-0.45-0.45","30","ttx9pl1m","high"
"4","5","free","220","117","107","blue-38","blue","678","sampling-task","58","1063250","0.0-5.0-0.46-0.46","30","ttx9pl1m","high"
"5","1","fixed","10","58","54","orange-115","orange","15436","sampling-task","61","1122761","0.0-5.0-0.47-0.47","30","ttx9pl1m","high"
"5","2","fixed","10","58","54","orange-47","orange","4054","sampling-task","62","1128330","0.0-5.0-0.48-0.48","30","ttx9pl1m","high"
"5","3","fixed","10","58","79","orange-71","orange","5966","sampling-task","63","1135889","0.0-5.0-0.49-0.49","30","ttx9pl1m","high"
"5","4","fixed","10","58","59","orange-22","orange","5702","sampling-task","64","1143233","0.0-5.0-0.50-0.50","30","ttx9pl1m","high"
"5","5","fixed","10","58","12","orange-113","orange","2638","sampling-task","65","1148169","0.0-5.0-0.51-0.51","30","ttx9pl1m","high"
"5","6","fixed","10","58","34","orange-210","orange","2838","sampling-task","66","1152129","0.0-5.0-0.52-0.52","30","ttx9pl1m","high"
"5","7","fixed","10","58","82","orange-26","orange","2653","sampling-task","67","1156697","0.0-5.0-0.53-0.53","30","ttx9pl1m","high"
"5","8","fixed","10","58","52","orange-42","orange","2150","sampling-task","68","1160633","0.0-5.0-0.54-0.54","30","ttx9pl1m","high"
"5","9","fixed","10","58","66","orange-192","orange","4005","sampling-task","69","1166361","0.0-5.0-0.55-0.55","30","ttx9pl1m","high"
"5","10","fixed","10","58","87","orange-122","orange","3749","sampling-task","70","1171689","0.0-5.0-0.56-0.56","30","ttx9pl1m","high"
"6","1","free","220","33","2","purple-170","purple","9325","sampling-task","73","1218689","0.0-5.0-0.57-0.57","30","ttx9pl1m","high"
"6","2","free","220","33","34","purple-8","purple","3462","sampling-task","74","1223569","0.0-5.0-0.58-0.58","30","ttx9pl1m","high"
"6","3","free","220","33","19","purple-65","purple","4038","sampling-task","75","1229065","0.0-5.0-0.59-0.59","30","ttx9pl1m","high"
"6","4","free","220","33","17","purple-76","purple","3486","sampling-task","76","1234017","0.0-5.0-0.60-0.60","30","ttx9pl1m","high"
"6","5","free","220","33","19","purple-21","purple","2310","sampling-task","77","1237601","0.0-5.0-0.61-0.61","30","ttx9pl1m","high"
"6","6","free","220","33","40","purple-156","purple","3374","sampling-task","78","1242257","0.0-5.0-0.62-0.62","30","ttx9pl1m","high"
"6","7","free","220","33","51","purple-122","purple","1366","sampling-task","79","1246657","0.0-5.0-0.63-0.63","30","ttx9pl1m","high"
"6","8","free","220","33","-7","purple-44","purple","2118","sampling-task","80","1251249","0.0-5.0-0.64-0.64","30","ttx9pl1m","high"
"6","9","free","220","33","43","purple-132","purple","1501","sampling-task","81","1253761","0.0-5.0-0.65-0.65","30","ttx9pl1m","high"
"6","10","free","220","33","57","purple-182","purple","966","sampling-task","82","1256160","0.0-5.0-0.66-0.66","30","ttx9pl1m","high"
"6","11","free","220","33","-26","purple-152","purple","662","sampling-task","83","1258096","0.0-5.0-0.67-0.67","30","ttx9pl1m","high"
"6","12","free","220","33","25","purple-204","purple","1495","sampling-task","84","1260976","0.0-5.0-0.68-0.68","30","ttx9pl1m","high"
