"round_number","sample_number","sampling_type","nSamples","mean","feedback","stimulus","stimulus_colour","rt","trial_type","trial_index","time_elapsed","internal_node_id","participant","randomID","condition"
"1","1","fixed","5","90","89","orange-136","orange","4389","sampling-task","6","204220","0.0-5.0-0.0-0.0","35","aubxk928","high"
"1","2","fixed","5","90","70","orange-182","orange","1102","sampling-task","7","210804","0.0-5.0-0.1-0.1","35","aubxk928","high"
"1","3","fixed","5","90","98","orange-36","orange","5822","sampling-task","8","218020","0.0-5.0-0.2-0.2","35","aubxk928","high"
"1","4","fixed","5","90","71","orange-208","orange","5150","sampling-task","9","226292","0.0-5.0-0.3-0.3","35","aubxk928","high"
"1","5","fixed","5","90","80","orange-110","orange","3054","sampling-task","10","231140","0.0-5.0-0.4-0.4","35","aubxk928","high"
"2","1","free","220","14","14","yellow-181","yellow","1764","sampling-task","13","266339","0.0-5.0-0.5-0.5","35","aubxk928","high"
"2","2","free","220","14","6","yellow-183","yellow","1910","sampling-task","14","269875","0.0-5.0-0.6-0.6","35","aubxk928","high"
"2","3","free","220","14","37","yellow-202","yellow","1894","sampling-task","15","275331","0.0-5.0-0.7-0.7","35","aubxk928","high"
"2","4","free","220","14","11","yellow-9","yellow","878","sampling-task","16","277412","0.0-5.0-0.8-0.8","35","aubxk928","high"
"2","5","free","220","14","-9","yellow-10","yellow","862","sampling-task","17","280419","0.0-5.0-0.9-0.9","35","aubxk928","high"
"2","6","free","220","14","39","yellow-57","yellow","999","sampling-task","18","283299","0.0-5.0-0.10-0.10","35","aubxk928","high"
"2","7","free","220","14","41","yellow-132","yellow","990","sampling-task","19","286875","0.0-5.0-0.11-0.11","35","aubxk928","high"
"2","8","free","220","14","18","yellow-93","yellow","910","sampling-task","20","288812","0.0-5.0-0.12-0.12","35","aubxk928","high"
"2","9","free","220","14","20","yellow-210","yellow","806","sampling-task","21","291076","0.0-5.0-0.13-0.13","35","aubxk928","high"
"2","10","free","220","14","16","yellow-66","yellow","798","sampling-task","22","292964","0.0-5.0-0.14-0.14","35","aubxk928","high"
"2","11","free","220","14","42","yellow-18","yellow","773","sampling-task","23","296131","0.0-5.0-0.15-0.15","35","aubxk928","high"
"2","12","free","220","14","-15","yellow-110","yellow","886","sampling-task","24","298179","0.0-5.0-0.16-0.16","35","aubxk928","high"
"2","13","free","220","14","-31","yellow-19","yellow","1382","sampling-task","25","300539","0.0-5.0-0.17-0.17","35","aubxk928","high"
"2","14","free","220","14","19","yellow-142","yellow","853","sampling-task","26","302651","0.0-5.0-0.18-0.18","35","aubxk928","high"
"2","15","free","220","14","19","yellow-105","yellow","894","sampling-task","27","304459","0.0-5.0-0.19-0.19","35","aubxk928","high"
"2","16","free","220","14","53","yellow-69","yellow","774","sampling-task","28","307059","0.0-5.0-0.20-0.20","35","aubxk928","high"
"2","17","free","220","14","44","yellow-75","yellow","750","sampling-task","29","309163","0.0-5.0-0.21-0.21","35","aubxk928","high"
"2","18","free","220","14","29","yellow-22","yellow","782","sampling-task","30","311139","0.0-5.0-0.22-0.22","35","aubxk928","high"
"2","19","free","220","14","2","yellow-66","yellow","734","sampling-task","31","312907","0.0-5.0-0.23-0.23","35","aubxk928","high"
"2","20","free","220","14","12","yellow-214","yellow","838","sampling-task","32","314899","0.0-5.0-0.24-0.24","35","aubxk928","high"
"2","21","free","220","14","8","yellow-39","yellow","878","sampling-task","33","317019","0.0-5.0-0.25-0.25","35","aubxk928","high"
"2","22","free","220","14","16","yellow-215","yellow","686","sampling-task","34","318763","0.0-5.0-0.26-0.26","35","aubxk928","high"
"2","23","free","220","14","0","yellow-117","yellow","702","sampling-task","35","320459","0.0-5.0-0.27-0.27","35","aubxk928","high"
"2","24","free","220","14","-6","yellow-29","yellow","662","sampling-task","36","322299","0.0-5.0-0.28-0.28","35","aubxk928","high"
"2","25","free","220","14","-7","yellow-114","yellow","814","sampling-task","37","324179","0.0-5.0-0.29-0.29","35","aubxk928","high"
"2","26","free","220","14","61","yellow-217","yellow","542","sampling-task","38","326099","0.0-5.0-0.30-0.30","35","aubxk928","high"
"2","27","free","220","14","-20","yellow-5","yellow","662","sampling-task","39","327643","0.0-5.0-0.31-0.31","35","aubxk928","high"
"2","28","free","220","14","-15","yellow-115","yellow","654","sampling-task","40","329227","0.0-5.0-0.32-0.32","35","aubxk928","high"
"2","29","free","220","14","28","yellow-107","yellow","622","sampling-task","41","330755","0.0-5.0-0.33-0.33","35","aubxk928","high"
"2","30","free","220","14","38","yellow-104","yellow","870","sampling-task","42","332795","0.0-5.0-0.34-0.34","35","aubxk928","high"
"2","31","free","220","14","28","yellow-220","yellow","646","sampling-task","43","334635","0.0-5.0-0.35-0.35","35","aubxk928","high"
"2","32","free","220","14","45","yellow-116","yellow","710","sampling-task","44","336291","0.0-5.0-0.36-0.36","35","aubxk928","high"
"2","33","free","220","14","-9","yellow-21","yellow","686","sampling-task","45","338131","0.0-5.0-0.37-0.37","35","aubxk928","high"
"3","1","fixed","20","55","85","red-42","red","2011","sampling-task","48","363658","0.0-5.0-0.38-0.38","35","aubxk928","high"
"3","2","fixed","20","55","31","red-53","red","1214","sampling-task","49","366050","0.0-5.0-0.39-0.39","35","aubxk928","high"
"3","3","fixed","20","55","51","red-86","red","926","sampling-task","50","367970","0.0-5.0-0.40-0.40","35","aubxk928","high"
"3","4","fixed","20","55","88","red-153","red","766","sampling-task","51","369666","0.0-5.0-0.41-0.41","35","aubxk928","high"
"3","5","fixed","20","55","55","red-213","red","646","sampling-task","52","371202","0.0-5.0-0.42-0.42","35","aubxk928","high"
"3","6","fixed","20","55","46","red-162","red","646","sampling-task","53","373058","0.0-5.0-0.43-0.43","35","aubxk928","high"
"3","7","fixed","20","55","66","red-170","red","654","sampling-task","54","374594","0.0-5.0-0.44-0.44","35","aubxk928","high"
"3","8","fixed","20","55","58","red-18","red","565","sampling-task","55","376482","0.0-5.0-0.45-0.45","35","aubxk928","high"
"3","9","fixed","20","55","51","red-193","red","574","sampling-task","56","378410","0.0-5.0-0.46-0.46","35","aubxk928","high"
"3","10","fixed","20","55","49","red-77","red","614","sampling-task","57","380234","0.0-5.0-0.47-0.47","35","aubxk928","high"
"3","11","fixed","20","55","45","red-165","red","446","sampling-task","58","381602","0.0-5.0-0.48-0.48","35","aubxk928","high"
"3","12","fixed","20","55","46","red-69","red","582","sampling-task","59","383058","0.0-5.0-0.49-0.49","35","aubxk928","high"
"3","13","fixed","20","55","21","red-48","red","582","sampling-task","60","384538","0.0-5.0-0.50-0.50","35","aubxk928","high"
"3","14","fixed","20","55","33","red-134","red","486","sampling-task","61","385890","0.0-5.0-0.51-0.51","35","aubxk928","high"
"3","15","fixed","20","55","65","red-191","red","487","sampling-task","62","387290","0.0-5.0-0.52-0.52","35","aubxk928","high"
"3","16","fixed","20","55","41","red-163","red","574","sampling-task","63","388730","0.0-5.0-0.53-0.53","35","aubxk928","high"
"3","17","fixed","20","55","53","red-173","red","558","sampling-task","64","390242","0.0-5.0-0.54-0.54","35","aubxk928","high"
"3","18","fixed","20","55","71","red-83","red","606","sampling-task","65","391794","0.0-5.0-0.55-0.55","35","aubxk928","high"
"3","19","fixed","20","55","67","red-216","red","461","sampling-task","66","393162","0.0-5.0-0.56-0.56","35","aubxk928","high"
"3","20","fixed","20","55","60","red-165","red","454","sampling-task","67","394450","0.0-5.0-0.57-0.57","35","aubxk928","high"
"4","1","free","220","32","39","green-182","green","1764","sampling-task","70","426297","0.0-5.0-0.58-0.58","35","aubxk928","high"
"4","2","free","220","32","16","green-159","green","614","sampling-task","71","427841","0.0-5.0-0.59-0.59","35","aubxk928","high"
"4","3","free","220","32","62","green-206","green","734","sampling-task","72","429465","0.0-5.0-0.60-0.60","35","aubxk928","high"
"4","4","free","220","32","23","green-131","green","526","sampling-task","73","430889","0.0-5.0-0.61-0.61","35","aubxk928","high"
"4","5","free","220","32","54","green-127","green","462","sampling-task","74","432353","0.0-5.0-0.62-0.62","35","aubxk928","high"
"4","6","free","220","32","39","green-19","green","573","sampling-task","75","433809","0.0-5.0-0.63-0.63","35","aubxk928","high"
"4","7","free","220","32","36","green-173","green","573","sampling-task","76","435633","0.0-5.0-0.64-0.64","35","aubxk928","high"
"4","8","free","220","32","16","green-159","green","613","sampling-task","77","437153","0.0-5.0-0.65-0.65","35","aubxk928","high"
"4","9","free","220","32","15","green-153","green","518","sampling-task","78","438545","0.0-5.0-0.66-0.66","35","aubxk928","high"
"4","10","free","220","32","49","green-68","green","462","sampling-task","79","439913","0.0-5.0-0.67-0.67","35","aubxk928","high"
"4","11","free","220","32","21","green-111","green","478","sampling-task","80","441281","0.0-5.0-0.68-0.68","35","aubxk928","high"
"4","12","free","220","32","54","green-137","green","574","sampling-task","81","442737","0.0-5.0-0.69-0.69","35","aubxk928","high"
"4","13","free","220","32","10","green-65","green","485","sampling-task","82","444097","0.0-5.0-0.70-0.70","35","aubxk928","high"
"4","14","free","220","32","24","green-144","green","525","sampling-task","83","445545","0.0-5.0-0.71-0.71","35","aubxk928","high"
"4","15","free","220","32","11","green-164","green","526","sampling-task","84","446969","0.0-5.0-0.72-0.72","35","aubxk928","high"
"4","16","free","220","32","59","green-142","green","494","sampling-task","85","448361","0.0-5.0-0.73-0.73","35","aubxk928","high"
"4","17","free","220","32","31","green-45","green","638","sampling-task","86","449873","0.0-5.0-0.74-0.74","35","aubxk928","high"
"4","18","free","220","32","44","green-91","green","485","sampling-task","87","451265","0.0-5.0-0.75-0.75","35","aubxk928","high"
"4","19","free","220","32","0","green-161","green","494","sampling-task","88","452809","0.0-5.0-0.76-0.76","35","aubxk928","high"
"4","20","free","220","32","59","green-44","green","486","sampling-task","89","454473","0.0-5.0-0.77-0.77","35","aubxk928","high"
"4","21","free","220","32","55","green-2","green","429","sampling-task","90","455801","0.0-5.0-0.78-0.78","35","aubxk928","high"
"4","22","free","220","32","29","green-204","green","477","sampling-task","91","457153","0.0-5.0-0.79-0.79","35","aubxk928","high"
"4","23","free","220","32","47","green-103","green","2310","sampling-task","92","460761","0.0-5.0-0.80-0.80","35","aubxk928","high"
"5","1","fixed","10","72","88","purple-88","purple","1485","sampling-task","95","485360","0.0-5.0-0.81-0.81","35","aubxk928","high"
"5","2","fixed","10","72","74","purple-142","purple","478","sampling-task","96","486744","0.0-5.0-0.82-0.82","35","aubxk928","high"
"5","3","fixed","10","72","113","purple-23","purple","557","sampling-task","97","488216","0.0-5.0-0.83-0.83","35","aubxk928","high"
"5","4","fixed","10","72","95","purple-14","purple","446","sampling-task","98","489536","0.0-5.0-0.84-0.84","35","aubxk928","high"
"5","5","fixed","10","72","54","purple-45","purple","429","sampling-task","99","490880","0.0-5.0-0.85-0.85","35","aubxk928","high"
"5","6","fixed","10","72","54","purple-60","purple","453","sampling-task","100","492184","0.0-5.0-0.86-0.86","35","aubxk928","high"
"5","7","fixed","10","72","82","purple-120","purple","438","sampling-task","101","493480","0.0-5.0-0.87-0.87","35","aubxk928","high"
"5","8","fixed","10","72","86","purple-86","purple","422","sampling-task","102","494776","0.0-5.0-0.88-0.88","35","aubxk928","high"
"5","9","fixed","10","72","76","purple-123","purple","476","sampling-task","103","497056","0.0-5.0-0.89-0.89","35","aubxk928","high"
"5","10","fixed","10","72","121","purple-133","purple","438","sampling-task","104","498424","0.0-5.0-0.90-0.90","35","aubxk928","high"
"6","1","free","220","118","99","blue-117","blue","1101","sampling-task","107","515208","0.0-5.0-0.91-0.91","35","aubxk928","high"
"6","2","free","220","118","112","blue-112","blue","478","sampling-task","108","516568","0.0-5.0-0.92-0.92","35","aubxk928","high"
"6","3","free","220","118","134","blue-47","blue","421","sampling-task","109","517864","0.0-5.0-0.93-0.93","35","aubxk928","high"
"6","4","free","220","118","106","blue-43","blue","453","sampling-task","110","519168","0.0-5.0-0.94-0.94","35","aubxk928","high"
"6","5","free","220","118","127","blue-195","blue","470","sampling-task","111","520912","0.0-5.0-0.95-0.95","35","aubxk928","high"
"6","6","free","220","118","100","blue-160","blue","525","sampling-task","112","522312","0.0-5.0-0.96-0.96","35","aubxk928","high"
"6","7","free","220","118","91","blue-94","blue","454","sampling-task","113","523696","0.0-5.0-0.97-0.97","35","aubxk928","high"
"6","8","free","220","118","131","blue-21","blue","470","sampling-task","114","525024","0.0-5.0-0.98-0.98","35","aubxk928","high"
"6","9","free","220","118","108","blue-80","blue","502","sampling-task","115","526656","0.0-5.0-0.99-0.99","35","aubxk928","high"
"6","10","free","220","118","133","blue-87","blue","478","sampling-task","116","527976","0.0-5.0-0.100-0.100","35","aubxk928","high"
"6","11","free","220","118","116","blue-119","blue","470","sampling-task","117","529360","0.0-5.0-0.101-0.101","35","aubxk928","high"
"6","12","free","220","118","104","blue-109","blue","462","sampling-task","118","530680","0.0-5.0-0.102-0.102","35","aubxk928","high"
"6","13","free","220","118","144","blue-163","blue","421","sampling-task","119","532361","0.0-5.0-0.103-0.103","35","aubxk928","high"
"6","14","free","220","118","119","blue-201","blue","476","sampling-task","120","533703","0.0-5.0-0.104-0.104","35","aubxk928","high"
"6","15","free","220","118","92","blue-7","blue","542","sampling-task","121","535135","0.0-5.0-0.105-0.105","35","aubxk928","high"
"6","16","free","220","118","143","blue-59","blue","414","sampling-task","122","536423","0.0-5.0-0.106-0.106","35","aubxk928","high"
"6","17","free","220","118","119","blue-141","blue","493","sampling-task","123","538151","0.0-5.0-0.107-0.107","35","aubxk928","high"
"6","18","free","220","118","113","blue-126","blue","518","sampling-task","124","539503","0.0-5.0-0.108-0.108","35","aubxk928","high"
"6","19","free","220","118","101","blue-23","blue","438","sampling-task","125","540847","0.0-5.0-0.109-0.109","35","aubxk928","high"
"6","20","free","220","118","119","blue-78","blue","438","sampling-task","126","542183","0.0-5.0-0.110-0.110","35","aubxk928","high"
"6","21","free","220","118","106","blue-41","blue","462","sampling-task","127","543615","0.0-5.0-0.111-0.111","35","aubxk928","high"
"6","22","free","220","118","117","blue-28","blue","413","sampling-task","128","544935","0.0-5.0-0.112-0.112","35","aubxk928","high"
"6","23","free","220","118","98","blue-75","blue","398","sampling-task","129","546208","0.0-5.0-0.113-0.113","35","aubxk928","high"
"6","24","free","220","118","115","blue-2","blue","446","sampling-task","130","547543","0.0-5.0-0.114-0.114","35","aubxk928","high"
"6","25","free","220","118","95","blue-212","blue","406","sampling-task","131","548935","0.0-5.0-0.115-0.115","35","aubxk928","high"
