"round_number","sample_number","sampling_type","nSamples","mean","feedback","stimulus","stimulus_colour","rt","trial_type","trial_index","time_elapsed","internal_node_id","participant","randomID","condition"
"1","1","fixed","10","114","117","blue-219","blue","7116","sampling-task","9","677639","0.0-5.0-0.0-0.0","75","uhap5x26","low"
"1","2","fixed","10","114","143","blue-219","blue","5094","sampling-task","10","704862","0.0-5.0-0.1-0.1","75","uhap5x26","low"
"1","3","fixed","10","114","103","blue-219","blue","1390","sampling-task","11","709164","0.0-5.0-0.2-0.2","75","uhap5x26","low"
"1","4","fixed","10","114","119","blue-219","blue","1142","sampling-task","12","713332","0.0-5.0-0.3-0.3","75","uhap5x26","low"
"1","5","fixed","10","114","98","blue-219","blue","878","sampling-task","13","717356","0.0-5.0-0.4-0.4","75","uhap5x26","low"
"1","6","fixed","10","114","124","blue-219","blue","981","sampling-task","14","721220","0.0-5.0-0.5-0.5","75","uhap5x26","low"
"1","7","fixed","10","114","109","blue-219","blue","1214","sampling-task","15","725204","0.0-5.0-0.6-0.6","75","uhap5x26","low"
"1","8","fixed","10","114","130","blue-219","blue","1670","sampling-task","16","729420","0.0-5.0-0.7-0.7","75","uhap5x26","low"
"1","9","fixed","10","114","125","blue-219","blue","1045","sampling-task","17","733300","0.0-5.0-0.8-0.8","75","uhap5x26","low"
"1","10","fixed","10","114","118","blue-219","blue","1590","sampling-task","18","739884","0.0-5.0-0.9-0.9","75","uhap5x26","low"
"2","1","free","220","15","30","yellow-46","yellow","6484","sampling-task","21","817619","0.0-5.0-0.10-0.10","75","uhap5x26","low"
"2","2","free","220","15","36","yellow-46","yellow","918","sampling-task","22","820571","0.0-5.0-0.11-0.11","75","uhap5x26","low"
"2","3","free","220","15","15","yellow-46","yellow","678","sampling-task","23","823131","0.0-5.0-0.12-0.12","75","uhap5x26","low"
"2","4","free","220","15","6","yellow-46","yellow","950","sampling-task","24","826307","0.0-5.0-0.13-0.13","75","uhap5x26","low"
"2","5","free","220","15","6","yellow-46","yellow","1038","sampling-task","25","829328","0.0-5.0-0.14-0.14","75","uhap5x26","low"
"2","6","free","220","15","35","yellow-46","yellow","895","sampling-task","26","832616","0.0-5.0-0.15-0.15","75","uhap5x26","low"
"2","7","free","220","15","36","yellow-46","yellow","814","sampling-task","27","835584","0.0-5.0-0.16-0.16","75","uhap5x26","low"
"2","8","free","220","15","16","yellow-46","yellow","734","sampling-task","28","838144","0.0-5.0-0.17-0.17","75","uhap5x26","low"
"2","9","free","220","15","27","yellow-46","yellow","1062","sampling-task","29","841377","0.0-5.0-0.18-0.18","75","uhap5x26","low"
"2","10","free","220","15","18","yellow-46","yellow","1022","sampling-task","30","844000","0.0-5.0-0.19-0.19","75","uhap5x26","low"
"2","11","free","220","15","36","yellow-46","yellow","1246","sampling-task","31","846928","0.0-5.0-0.20-0.20","75","uhap5x26","low"
"2","12","free","220","15","7","yellow-46","yellow","791","sampling-task","32","849552","0.0-5.0-0.21-0.21","75","uhap5x26","low"
"2","13","free","220","15","15","yellow-46","yellow","863","sampling-task","33","852744","0.0-5.0-0.22-0.22","75","uhap5x26","low"
"2","14","free","220","15","11","yellow-46","yellow","670","sampling-task","34","855080","0.0-5.0-0.23-0.23","75","uhap5x26","low"
"2","15","free","220","15","29","yellow-46","yellow","734","sampling-task","35","858120","0.0-5.0-0.24-0.24","75","uhap5x26","low"
"3","1","fixed","5","71","92","purple-8","purple","5572","sampling-task","38","912670","0.0-5.0-0.25-0.25","75","uhap5x26","low"
"3","2","fixed","5","71","58","purple-8","purple","1678","sampling-task","39","916974","0.0-5.0-0.26-0.26","75","uhap5x26","low"
"3","3","fixed","5","71","37","purple-8","purple","1502","sampling-task","40","921182","0.0-5.0-0.27-0.27","75","uhap5x26","low"
"3","4","fixed","5","71","92","purple-8","purple","1302","sampling-task","41","927118","0.0-5.0-0.28-0.28","75","uhap5x26","low"
"3","5","fixed","5","71","80","purple-8","purple","6198","sampling-task","42","935110","0.0-5.0-0.29-0.29","75","uhap5x26","low"
"4","1","free","220","51","29","green-40","green","4293","sampling-task","45","1001493","0.0-5.0-0.30-0.30","75","uhap5x26","low"
"4","2","free","220","51","-22","green-40","green","894","sampling-task","46","1005613","0.0-5.0-0.31-0.31","75","uhap5x26","low"
"4","3","free","220","51","8","green-40","green","1078","sampling-task","47","1010363","0.0-5.0-0.32-0.32","75","uhap5x26","low"
"4","4","free","220","51","9","green-40","green","1086","sampling-task","48","1013323","0.0-5.0-0.33-0.33","75","uhap5x26","low"
"4","5","free","220","51","21","green-40","green","1181","sampling-task","49","1016555","0.0-5.0-0.34-0.34","75","uhap5x26","low"
"4","6","free","220","51","-3","green-40","green","1358","sampling-task","50","1020219","0.0-5.0-0.35-0.35","75","uhap5x26","low"
"4","7","free","220","51","47","green-40","green","1054","sampling-task","51","1023115","0.0-5.0-0.36-0.36","75","uhap5x26","low"
"4","8","free","220","51","82","green-40","green","702","sampling-task","52","1025203","0.0-5.0-0.37-0.37","75","uhap5x26","low"
"4","9","free","220","51","44","green-40","green","926","sampling-task","53","1027411","0.0-5.0-0.38-0.38","75","uhap5x26","low"
"5","1","fixed","20","35","22","red-196","red","3836","sampling-task","56","1078753","0.0-5.0-0.39-0.39","75","uhap5x26","low"
"5","2","fixed","20","35","-5","red-196","red","694","sampling-task","57","1080497","0.0-5.0-0.40-0.40","75","uhap5x26","low"
"5","3","fixed","20","35","27","red-196","red","702","sampling-task","58","1082202","0.0-5.0-0.41-0.41","75","uhap5x26","low"
"5","4","fixed","20","35","57","red-196","red","670","sampling-task","59","1084321","0.0-5.0-0.42-0.42","75","uhap5x26","low"
"5","5","fixed","20","35","59","red-196","red","822","sampling-task","60","1086489","0.0-5.0-0.43-0.43","75","uhap5x26","low"
"5","6","fixed","20","35","79","red-196","red","1038","sampling-task","61","1088569","0.0-5.0-0.44-0.44","75","uhap5x26","low"
"5","7","fixed","20","35","15","red-196","red","1878","sampling-task","62","1091586","0.0-5.0-0.45-0.45","75","uhap5x26","low"
"5","8","fixed","20","35","24","red-196","red","902","sampling-task","63","1094121","0.0-5.0-0.46-0.46","75","uhap5x26","low"
"5","9","fixed","20","35","39","red-196","red","974","sampling-task","64","1096161","0.0-5.0-0.47-0.47","75","uhap5x26","low"
"5","10","fixed","20","35","23","red-196","red","1734","sampling-task","65","1099002","0.0-5.0-0.48-0.48","75","uhap5x26","low"
"5","11","fixed","20","35","32","red-196","red","646","sampling-task","66","1100993","0.0-5.0-0.49-0.49","75","uhap5x26","low"
"5","12","fixed","20","35","61","red-196","red","950","sampling-task","67","1103777","0.0-5.0-0.50-0.50","75","uhap5x26","low"
"5","13","fixed","20","35","58","red-196","red","1070","sampling-task","68","1106633","0.0-5.0-0.51-0.51","75","uhap5x26","low"
"5","14","fixed","20","35","40","red-196","red","758","sampling-task","69","1108617","0.0-5.0-0.52-0.52","75","uhap5x26","low"
"5","15","fixed","20","35","34","red-196","red","902","sampling-task","70","1111641","0.0-5.0-0.53-0.53","75","uhap5x26","low"
"5","16","fixed","20","35","40","red-196","red","774","sampling-task","71","1113705","0.0-5.0-0.54-0.54","75","uhap5x26","low"
"5","17","fixed","20","35","48","red-196","red","918","sampling-task","72","1116321","0.0-5.0-0.55-0.55","75","uhap5x26","low"
"5","18","fixed","20","35","39","red-196","red","5054","sampling-task","73","1123537","0.0-5.0-0.56-0.56","75","uhap5x26","low"
"5","19","fixed","20","35","5","red-196","red","814","sampling-task","74","1126553","0.0-5.0-0.57-0.57","75","uhap5x26","low"
"5","20","fixed","20","35","37","red-196","red","1350","sampling-task","75","1130089","0.0-5.0-0.58-0.58","75","uhap5x26","low"
"6","1","free","220","95","82","orange-129","orange","5012","sampling-task","78","1218141","0.0-5.0-0.59-0.59","75","uhap5x26","low"
"6","2","free","220","95","80","orange-129","orange","814","sampling-task","79","1220109","0.0-5.0-0.60-0.60","75","uhap5x26","low"
"6","3","free","220","95","79","orange-129","orange","646","sampling-task","80","1222053","0.0-5.0-0.61-0.61","75","uhap5x26","low"
"6","4","free","220","95","112","orange-129","orange","782","sampling-task","81","1224301","0.0-5.0-0.62-0.62","75","uhap5x26","low"
"6","5","free","220","95","107","orange-129","orange","693","sampling-task","82","1226093","0.0-5.0-0.63-0.63","75","uhap5x26","low"
"6","6","free","220","95","51","orange-129","orange","726","sampling-task","83","1228037","0.0-5.0-0.64-0.64","75","uhap5x26","low"
"6","7","free","220","95","125","orange-129","orange","614","sampling-task","84","1229981","0.0-5.0-0.65-0.65","75","uhap5x26","low"
"6","8","free","220","95","78","orange-129","orange","677","sampling-task","85","1231997","0.0-5.0-0.66-0.66","75","uhap5x26","low"
"6","9","free","220","95","56","orange-129","orange","630","sampling-task","86","1234173","0.0-5.0-0.67-0.67","75","uhap5x26","low"
"6","10","free","220","95","90","orange-129","orange","686","sampling-task","87","1236037","0.0-5.0-0.68-0.68","75","uhap5x26","low"
"6","11","free","220","95","71","orange-129","orange","1366","sampling-task","88","1239301","0.0-5.0-0.69-0.69","75","uhap5x26","low"
