"round_number","sample_number","sampling_type","nSamples","mean","feedback","stimulus","stimulus_colour","rt","trial_type","trial_index","time_elapsed","internal_node_id","participant","randomID","condition"
"1","1","fixed","5","111","81","blue-33","blue","6513","sampling-task","12","429481","0.0-5.0-0.0-0.0","10","r18tpgmh","low"
"1","2","fixed","5","111","156","blue-33","blue","1413","sampling-task","13","432864","0.0-5.0-0.1-0.1","10","r18tpgmh","low"
"1","3","fixed","5","111","86","blue-33","blue","1054","sampling-task","14","435352","0.0-5.0-0.2-0.2","10","r18tpgmh","low"
"1","4","fixed","5","111","114","blue-33","blue","910","sampling-task","15","437608","0.0-5.0-0.3-0.3","10","r18tpgmh","low"
"1","5","fixed","5","111","122","blue-33","blue","1173","sampling-task","16","440184","0.0-5.0-0.4-0.4","10","r18tpgmh","low"
"2","1","free","220","19","-24","yellow-182","yellow","4180","sampling-task","19","492471","0.0-5.0-0.5-0.5","10","r18tpgmh","low"
"2","2","free","220","19","32","yellow-182","yellow","862","sampling-task","20","494775","0.0-5.0-0.6-0.6","10","r18tpgmh","low"
"2","3","free","220","19","13","yellow-182","yellow","662","sampling-task","21","496599","0.0-5.0-0.7-0.7","10","r18tpgmh","low"
"2","4","free","220","19","17","yellow-182","yellow","702","sampling-task","22","498742","0.0-5.0-0.8-0.8","10","r18tpgmh","low"
"2","5","free","220","19","34","yellow-182","yellow","510","sampling-task","23","500415","0.0-5.0-0.9-0.9","10","r18tpgmh","low"
"2","6","free","220","19","26","yellow-182","yellow","502","sampling-task","24","502255","0.0-5.0-0.10-0.10","10","r18tpgmh","low"
"2","7","free","220","19","13","yellow-182","yellow","470","sampling-task","25","503823","0.0-5.0-0.11-0.11","10","r18tpgmh","low"
"2","8","free","220","19","29","yellow-182","yellow","502","sampling-task","26","505359","0.0-5.0-0.12-0.12","10","r18tpgmh","low"
"2","9","free","220","19","17","yellow-182","yellow","446","sampling-task","27","506823","0.0-5.0-0.13-0.13","10","r18tpgmh","low"
"2","10","free","220","19","18","yellow-182","yellow","446","sampling-task","28","508703","0.0-5.0-0.14-0.14","10","r18tpgmh","low"
"2","11","free","220","19","49","yellow-182","yellow","414","sampling-task","29","510327","0.0-5.0-0.15-0.15","10","r18tpgmh","low"
"2","12","free","220","19","5","yellow-182","yellow","430","sampling-task","30","511783","0.0-5.0-0.16-0.16","10","r18tpgmh","low"
"2","13","free","220","19","23","yellow-182","yellow","430","sampling-task","31","513439","0.0-5.0-0.17-0.17","10","r18tpgmh","low"
"2","14","free","220","19","44","yellow-182","yellow","398","sampling-task","32","514847","0.0-5.0-0.18-0.18","10","r18tpgmh","low"
"2","15","free","220","19","10","yellow-182","yellow","462","sampling-task","33","516207","0.0-5.0-0.19-0.19","10","r18tpgmh","low"
"2","16","free","220","19","-5","yellow-182","yellow","430","sampling-task","34","518055","0.0-5.0-0.20-0.20","10","r18tpgmh","low"
"2","17","free","220","19","22","yellow-182","yellow","382","sampling-task","35","519703","0.0-5.0-0.21-0.21","10","r18tpgmh","low"
"2","18","free","220","19","33","yellow-182","yellow","430","sampling-task","36","521351","0.0-5.0-0.22-0.22","10","r18tpgmh","low"
"2","19","free","220","19","40","yellow-182","yellow","382","sampling-task","37","522759","0.0-5.0-0.23-0.23","10","r18tpgmh","low"
"2","20","free","220","19","20","yellow-182","yellow","710","sampling-task","38","524527","0.0-5.0-0.24-0.24","10","r18tpgmh","low"
"2","21","free","220","19","19","yellow-182","yellow","350","sampling-task","39","525863","0.0-5.0-0.25-0.25","10","r18tpgmh","low"
"2","22","free","220","19","33","yellow-182","yellow","390","sampling-task","40","527439","0.0-5.0-0.26-0.26","10","r18tpgmh","low"
"2","23","free","220","19","2","yellow-182","yellow","414","sampling-task","41","528759","0.0-5.0-0.27-0.27","10","r18tpgmh","low"
"2","24","free","220","19","12","yellow-182","yellow","654","sampling-task","42","530463","0.0-5.0-0.28-0.28","10","r18tpgmh","low"
"2","25","free","220","19","4","yellow-182","yellow","718","sampling-task","43","532551","0.0-5.0-0.29-0.29","10","r18tpgmh","low"
"3","1","fixed","20","30","30","orange-38","orange","6212","sampling-task","46","557212","0.0-5.0-0.30-0.30","10","r18tpgmh","low"
"3","2","fixed","20","30","26","orange-38","orange","1038","sampling-task","47","559460","0.0-5.0-0.31-0.31","10","r18tpgmh","low"
"3","3","fixed","20","30","13","orange-38","orange","734","sampling-task","48","561236","0.0-5.0-0.32-0.32","10","r18tpgmh","low"
"3","4","fixed","20","30","19","orange-38","orange","789","sampling-task","49","563076","0.0-5.0-0.33-0.33","10","r18tpgmh","low"
"3","5","fixed","20","30","21","orange-38","orange","590","sampling-task","50","564860","0.0-5.0-0.34-0.34","10","r18tpgmh","low"
"3","6","fixed","20","30","13","orange-38","orange","478","sampling-task","51","566309","0.0-5.0-0.35-0.35","10","r18tpgmh","low"
"3","7","fixed","20","30","57","orange-38","orange","709","sampling-task","52","568036","0.0-5.0-0.36-0.36","10","r18tpgmh","low"
"3","8","fixed","20","30","9","orange-38","orange","478","sampling-task","53","569428","0.0-5.0-0.37-0.37","10","r18tpgmh","low"
"3","9","fixed","20","30","21","orange-38","orange","429","sampling-task","54","571004","0.0-5.0-0.38-0.38","10","r18tpgmh","low"
"3","10","fixed","20","30","28","orange-38","orange","502","sampling-task","55","572860","0.0-5.0-0.39-0.39","10","r18tpgmh","low"
"3","11","fixed","20","30","20","orange-38","orange","470","sampling-task","56","574212","0.0-5.0-0.40-0.40","10","r18tpgmh","low"
"3","12","fixed","20","30","68","orange-38","orange","446","sampling-task","57","575604","0.0-5.0-0.41-0.41","10","r18tpgmh","low"
"3","13","fixed","20","30","33","orange-38","orange","470","sampling-task","58","576972","0.0-5.0-0.42-0.42","10","r18tpgmh","low"
"3","14","fixed","20","30","-25","orange-38","orange","391","sampling-task","59","578532","0.0-5.0-0.43-0.43","10","r18tpgmh","low"
"3","15","fixed","20","30","27","orange-38","orange","478","sampling-task","60","580444","0.0-5.0-0.44-0.44","10","r18tpgmh","low"
"3","16","fixed","20","30","10","orange-38","orange","430","sampling-task","61","581892","0.0-5.0-0.45-0.45","10","r18tpgmh","low"
"3","17","fixed","20","30","49","orange-38","orange","542","sampling-task","62","583356","0.0-5.0-0.46-0.46","10","r18tpgmh","low"
"3","18","fixed","20","30","24","orange-38","orange","422","sampling-task","63","584748","0.0-5.0-0.47-0.47","10","r18tpgmh","low"
"3","19","fixed","20","30","-5","orange-38","orange","574","sampling-task","64","586724","0.0-5.0-0.48-0.48","10","r18tpgmh","low"
"3","20","fixed","20","30","50","orange-38","orange","590","sampling-task","65","588508","0.0-5.0-0.49-0.49","10","r18tpgmh","low"
"4","1","free","220","59","37","red-125","red","2661","sampling-task","68","620627","0.0-5.0-0.50-0.50","10","r18tpgmh","low"
"4","2","free","220","59","74","red-125","red","454","sampling-task","69","622115","0.0-5.0-0.51-0.51","10","r18tpgmh","low"
"4","3","free","220","59","94","red-125","red","414","sampling-task","70","623458","0.0-5.0-0.52-0.52","10","r18tpgmh","low"
"4","4","free","220","59","73","red-125","red","390","sampling-task","71","625091","0.0-5.0-0.53-0.53","10","r18tpgmh","low"
"4","5","free","220","59","64","red-125","red","414","sampling-task","72","626683","0.0-5.0-0.54-0.54","10","r18tpgmh","low"
"4","6","free","220","59","62","red-125","red","486","sampling-task","73","628210","0.0-5.0-0.55-0.55","10","r18tpgmh","low"
"4","7","free","220","59","67","red-125","red","526","sampling-task","74","629779","0.0-5.0-0.56-0.56","10","r18tpgmh","low"
"4","8","free","220","59","90","red-125","red","390","sampling-task","75","631218","0.0-5.0-0.57-0.57","10","r18tpgmh","low"
"4","9","free","220","59","44","red-125","red","398","sampling-task","76","632546","0.0-5.0-0.58-0.58","10","r18tpgmh","low"
"4","10","free","220","59","25","red-125","red","390","sampling-task","77","633923","0.0-5.0-0.59-0.59","10","r18tpgmh","low"
"4","11","free","220","59","69","red-125","red","374","sampling-task","78","635195","0.0-5.0-0.60-0.60","10","r18tpgmh","low"
"4","12","free","220","59","35","red-125","red","398","sampling-task","79","636522","0.0-5.0-0.61-0.61","10","r18tpgmh","low"
"4","13","free","220","59","66","red-125","red","374","sampling-task","80","637842","0.0-5.0-0.62-0.62","10","r18tpgmh","low"
"4","14","free","220","59","64","red-125","red","366","sampling-task","81","639346","0.0-5.0-0.63-0.63","10","r18tpgmh","low"
"4","15","free","220","59","66","red-125","red","414","sampling-task","82","640651","0.0-5.0-0.64-0.64","10","r18tpgmh","low"
"4","16","free","220","59","44","red-125","red","446","sampling-task","83","642442","0.0-5.0-0.65-0.65","10","r18tpgmh","low"
"4","17","free","220","59","55","red-125","red","406","sampling-task","84","643803","0.0-5.0-0.66-0.66","10","r18tpgmh","low"
"4","18","free","220","59","60","red-125","red","382","sampling-task","85","645410","0.0-5.0-0.67-0.67","10","r18tpgmh","low"
"4","19","free","220","59","52","red-125","red","390","sampling-task","86","647019","0.0-5.0-0.68-0.68","10","r18tpgmh","low"
"4","20","free","220","59","81","red-125","red","430","sampling-task","87","648738","0.0-5.0-0.69-0.69","10","r18tpgmh","low"
"4","21","free","220","59","37","red-125","red","1038","sampling-task","88","651114","0.0-5.0-0.70-0.70","10","r18tpgmh","low"
"5","1","fixed","10","78","75","green-30","green","2356","sampling-task","91","683904","0.0-5.0-0.71-0.71","10","r18tpgmh","low"
"5","2","fixed","10","78","75","green-30","green","390","sampling-task","92","685184","0.0-5.0-0.72-0.72","10","r18tpgmh","low"
"5","3","fixed","10","78","52","green-30","green","446","sampling-task","93","686513","0.0-5.0-0.73-0.73","10","r18tpgmh","low"
"5","4","fixed","10","78","60","green-30","green","446","sampling-task","94","687833","0.0-5.0-0.74-0.74","10","r18tpgmh","low"
"5","5","fixed","10","78","63","green-30","green","421","sampling-task","95","689112","0.0-5.0-0.75-0.75","10","r18tpgmh","low"
"5","6","fixed","10","78","27","green-30","green","446","sampling-task","96","690480","0.0-5.0-0.76-0.76","10","r18tpgmh","low"
"5","7","fixed","10","78","68","green-30","green","582","sampling-task","97","692040","0.0-5.0-0.77-0.77","10","r18tpgmh","low"
"5","8","fixed","10","78","62","green-30","green","382","sampling-task","98","693312","0.0-5.0-0.78-0.78","10","r18tpgmh","low"
"5","9","fixed","10","78","100","green-30","green","430","sampling-task","99","694808","0.0-5.0-0.79-0.79","10","r18tpgmh","low"
"5","10","fixed","10","78","72","green-30","green","566","sampling-task","100","696232","0.0-5.0-0.80-0.80","10","r18tpgmh","low"
"6","1","free","220","90","109","purple-64","purple","1948","sampling-task","103","721336","0.0-5.0-0.81-0.81","10","r18tpgmh","low"
"6","2","free","220","90","90","purple-64","purple","406","sampling-task","104","722640","0.0-5.0-0.82-0.82","10","r18tpgmh","low"
"6","3","free","220","90","95","purple-64","purple","390","sampling-task","105","723976","0.0-5.0-0.83-0.83","10","r18tpgmh","low"
"6","4","free","220","90","86","purple-64","purple","382","sampling-task","106","725232","0.0-5.0-0.84-0.84","10","r18tpgmh","low"
"6","5","free","220","90","116","purple-64","purple","373","sampling-task","107","726609","0.0-5.0-0.85-0.85","10","r18tpgmh","low"
"6","6","free","220","90","106","purple-64","purple","357","sampling-task","108","727864","0.0-5.0-0.86-0.86","10","r18tpgmh","low"
"6","7","free","220","90","83","purple-64","purple","390","sampling-task","109","729160","0.0-5.0-0.87-0.87","10","r18tpgmh","low"
"6","8","free","220","90","82","purple-64","purple","374","sampling-task","110","730688","0.0-5.0-0.88-0.88","10","r18tpgmh","low"
"6","9","free","220","90","75","purple-64","purple","350","sampling-task","111","732118","0.0-5.0-0.89-0.89","10","r18tpgmh","low"
"6","10","free","220","90","100","purple-64","purple","350","sampling-task","112","733374","0.0-5.0-0.90-0.90","10","r18tpgmh","low"
"6","11","free","220","90","65","purple-64","purple","382","sampling-task","113","734622","0.0-5.0-0.91-0.91","10","r18tpgmh","low"
"6","12","free","220","90","97","purple-64","purple","365","sampling-task","114","736166","0.0-5.0-0.92-0.92","10","r18tpgmh","low"
"6","13","free","220","90","86","purple-64","purple","366","sampling-task","115","737902","0.0-5.0-0.93-0.93","10","r18tpgmh","low"
"6","14","free","220","90","87","purple-64","purple","437","sampling-task","116","739214","0.0-5.0-0.94-0.94","10","r18tpgmh","low"
"6","15","free","220","90","76","purple-64","purple","381","sampling-task","117","740534","0.0-5.0-0.95-0.95","10","r18tpgmh","low"
"6","16","free","220","90","100","purple-64","purple","397","sampling-task","118","741886","0.0-5.0-0.96-0.96","10","r18tpgmh","low"
"6","17","free","220","90","103","purple-64","purple","381","sampling-task","119","743462","0.0-5.0-0.97-0.97","10","r18tpgmh","low"
"6","18","free","220","90","79","purple-64","purple","398","sampling-task","120","744758","0.0-5.0-0.98-0.98","10","r18tpgmh","low"
"6","19","free","220","90","83","purple-64","purple","382","sampling-task","121","746214","0.0-5.0-0.99-0.99","10","r18tpgmh","low"
"6","20","free","220","90","94","purple-64","purple","437","sampling-task","122","747502","0.0-5.0-0.100-0.100","10","r18tpgmh","low"
"6","21","free","220","90","110","purple-64","purple","549","sampling-task","123","749678","0.0-5.0-0.101-0.101","10","r18tpgmh","low"
"6","22","free","220","90","79","purple-64","purple","933","sampling-task","124","751726","0.0-5.0-0.102-0.102","10","r18tpgmh","low"
