"round_number","sample_number","sampling_type","nSamples","mean","feedback","stimulus","stimulus_colour","rt","trial_type","trial_index","time_elapsed","internal_node_id","participant","randomID","condition"
"1","1","fixed","5","97","56","yellow-191","yellow","5766","sampling-task","6","1100408","0.0-5.0-0.0-0.0","4","wbuls3e3","high"
"1","2","fixed","5","97","90","yellow-132","yellow","2518","sampling-task","7","1104944","0.0-5.0-0.1-0.1","4","wbuls3e3","high"
"1","3","fixed","5","97","120","yellow-16","yellow","814","sampling-task","8","1113695","0.0-5.0-0.2-0.2","4","wbuls3e3","high"
"1","4","fixed","5","97","91","yellow-96","yellow","950","sampling-task","9","1115918","0.0-5.0-0.3-0.3","4","wbuls3e3","high"
"1","5","fixed","5","97","95","yellow-72","yellow","575","sampling-task","10","1118710","0.0-5.0-0.4-0.4","4","wbuls3e3","high"
"2","1","free","220","11","18","purple-131","purple","2061","sampling-task","13","1166847","0.0-5.0-0.5-0.5","4","wbuls3e3","high"
"2","2","free","220","11","28","purple-158","purple","1222","sampling-task","14","1169334","0.0-5.0-0.6-0.6","4","wbuls3e3","high"
"2","3","free","220","11","15","purple-71","purple","1189","sampling-task","15","1171734","0.0-5.0-0.7-0.7","4","wbuls3e3","high"
"2","4","free","220","11","12","purple-155","purple","878","sampling-task","16","1173966","0.0-5.0-0.8-0.8","4","wbuls3e3","high"
"2","5","free","220","11","12","purple-13","purple","846","sampling-task","17","1177094","0.0-5.0-0.9-0.9","4","wbuls3e3","high"
"2","6","free","220","11","-12","purple-115","purple","1341","sampling-task","18","1180638","0.0-5.0-0.10-0.10","4","wbuls3e3","high"
"2","7","free","220","11","-4","purple-12","purple","950","sampling-task","19","1183022","0.0-5.0-0.11-0.11","4","wbuls3e3","high"
"3","1","fixed","10","114","77","green-15","green","1532","sampling-task","22","1223030","0.0-5.0-0.12-0.12","4","wbuls3e3","high"
"3","2","fixed","10","114","129","green-105","green","934","sampling-task","23","1226662","0.0-5.0-0.13-0.13","4","wbuls3e3","high"
"3","3","fixed","10","114","147","green-98","green","790","sampling-task","24","1228670","0.0-5.0-0.14-0.14","4","wbuls3e3","high"
"3","4","fixed","10","114","106","green-97","green","830","sampling-task","25","1230734","0.0-5.0-0.15-0.15","4","wbuls3e3","high"
"3","5","fixed","10","114","63","green-58","green","934","sampling-task","26","1233237","0.0-5.0-0.16-0.16","4","wbuls3e3","high"
"3","6","fixed","10","114","123","green-205","green","966","sampling-task","27","1236565","0.0-5.0-0.17-0.17","4","wbuls3e3","high"
"3","7","fixed","10","114","125","green-65","green","934","sampling-task","28","1238718","0.0-5.0-0.18-0.18","4","wbuls3e3","high"
"3","8","fixed","10","114","91","green-33","green","886","sampling-task","29","1240934","0.0-5.0-0.19-0.19","4","wbuls3e3","high"
"3","9","fixed","10","114","101","green-182","green","950","sampling-task","30","1243046","0.0-5.0-0.20-0.20","4","wbuls3e3","high"
"3","10","fixed","10","114","105","green-130","green","910","sampling-task","31","1245430","0.0-5.0-0.21-0.21","4","wbuls3e3","high"
"4","1","free","220","57","88","orange-67","orange","1613","sampling-task","34","1280022","0.0-5.0-0.22-0.22","4","wbuls3e3","high"
"4","2","free","220","57","55","orange-121","orange","5054","sampling-task","35","1288134","0.0-5.0-0.23-0.23","4","wbuls3e3","high"
"4","3","free","220","57","63","orange-20","orange","742","sampling-task","36","1290549","0.0-5.0-0.24-0.24","4","wbuls3e3","high"
"4","4","free","220","57","36","orange-219","orange","798","sampling-task","37","1292477","0.0-5.0-0.25-0.25","4","wbuls3e3","high"
"4","5","free","220","57","40","orange-154","orange","694","sampling-task","38","1294333","0.0-5.0-0.26-0.26","4","wbuls3e3","high"
"4","6","free","220","57","22","orange-34","orange","589","sampling-task","39","1296669","0.0-5.0-0.27-0.27","4","wbuls3e3","high"
"4","7","free","220","57","44","orange-184","orange","614","sampling-task","40","1298445","0.0-5.0-0.28-0.28","4","wbuls3e3","high"
"4","8","free","220","57","69","orange-47","orange","590","sampling-task","41","1300133","0.0-5.0-0.29-0.29","4","wbuls3e3","high"
"4","9","free","220","57","49","orange-152","orange","694","sampling-task","42","1302205","0.0-5.0-0.30-0.30","4","wbuls3e3","high"
"4","10","free","220","57","67","orange-9","orange","846","sampling-task","43","1304333","0.0-5.0-0.31-0.31","4","wbuls3e3","high"
"4","11","free","220","57","82","orange-174","orange","662","sampling-task","44","1306045","0.0-5.0-0.32-0.32","4","wbuls3e3","high"
"4","12","free","220","57","53","orange-61","orange","742","sampling-task","45","1307909","0.0-5.0-0.33-0.33","4","wbuls3e3","high"
"4","13","free","220","57","32","orange-61","orange","662","sampling-task","46","1309893","0.0-5.0-0.34-0.34","4","wbuls3e3","high"
"4","14","free","220","57","93","orange-140","orange","534","sampling-task","47","1311461","0.0-5.0-0.35-0.35","4","wbuls3e3","high"
"4","15","free","220","57","65","orange-59","orange","565","sampling-task","48","1313621","0.0-5.0-0.36-0.36","4","wbuls3e3","high"
"4","16","free","220","57","52","orange-99","orange","1470","sampling-task","49","1316429","0.0-5.0-0.37-0.37","4","wbuls3e3","high"
"4","17","free","220","57","38","orange-64","orange","1366","sampling-task","50","1319517","0.0-5.0-0.38-0.38","4","wbuls3e3","high"
"5","1","fixed","20","70","104","blue-28","blue","1565","sampling-task","53","1352501","0.0-5.0-0.39-0.39","4","wbuls3e3","high"
"5","2","fixed","20","70","94","blue-157","blue","3078","sampling-task","54","1357517","0.0-5.0-0.40-0.40","4","wbuls3e3","high"
"5","3","fixed","20","70","87","blue-192","blue","1085","sampling-task","55","1359749","0.0-5.0-0.41-0.41","4","wbuls3e3","high"
"5","4","fixed","20","70","53","blue-36","blue","758","sampling-task","56","1361909","0.0-5.0-0.42-0.42","4","wbuls3e3","high"
"5","5","fixed","20","70","96","blue-114","blue","908","sampling-task","57","1364053","0.0-5.0-0.43-0.43","4","wbuls3e3","high"
"5","6","fixed","20","70","42","blue-124","blue","935","sampling-task","58","1366069","0.0-5.0-0.44-0.44","4","wbuls3e3","high"
"5","7","fixed","20","70","69","blue-201","blue","741","sampling-task","59","1367806","0.0-5.0-0.45-0.45","4","wbuls3e3","high"
"5","8","fixed","20","70","50","blue-20","blue","988","sampling-task","60","1369773","0.0-5.0-0.46-0.46","4","wbuls3e3","high"
"5","9","fixed","20","70","74","blue-25","blue","758","sampling-task","61","1371589","0.0-5.0-0.47-0.47","4","wbuls3e3","high"
"5","10","fixed","20","70","44","blue-43","blue","718","sampling-task","62","1374373","0.0-5.0-0.48-0.48","4","wbuls3e3","high"
"5","11","fixed","20","70","42","blue-84","blue","646","sampling-task","63","1376109","0.0-5.0-0.49-0.49","4","wbuls3e3","high"
"5","12","fixed","20","70","54","blue-24","blue","1887","sampling-task","64","1379301","0.0-5.0-0.50-0.50","4","wbuls3e3","high"
"5","13","fixed","20","70","82","blue-205","blue","1069","sampling-task","65","1381501","0.0-5.0-0.51-0.51","4","wbuls3e3","high"
"5","14","fixed","20","70","99","blue-116","blue","1551","sampling-task","66","1384101","0.0-5.0-0.52-0.52","4","wbuls3e3","high"
"5","15","fixed","20","70","98","blue-90","blue","1127","sampling-task","67","1386693","0.0-5.0-0.53-0.53","4","wbuls3e3","high"
"5","16","fixed","20","70","89","blue-6","blue","622","sampling-task","68","1388357","0.0-5.0-0.54-0.54","4","wbuls3e3","high"
"5","17","fixed","20","70","77","blue-211","blue","550","sampling-task","69","1390085","0.0-5.0-0.55-0.55","4","wbuls3e3","high"
"5","18","fixed","20","70","88","blue-104","blue","1014","sampling-task","70","1392085","0.0-5.0-0.56-0.56","4","wbuls3e3","high"
"5","19","fixed","20","70","46","blue-2","blue","1013","sampling-task","71","1395261","0.0-5.0-0.57-0.57","4","wbuls3e3","high"
"5","20","fixed","20","70","102","blue-49","blue","829","sampling-task","72","1398189","0.0-5.0-0.58-0.58","4","wbuls3e3","high"
"6","1","free","220","30","27","red-218","red","1469","sampling-task","75","1431972","0.0-5.0-0.59-0.59","4","wbuls3e3","high"
"6","2","free","220","30","38","red-147","red","4205","sampling-task","76","1437909","0.0-5.0-0.60-0.60","4","wbuls3e3","high"
"6","3","free","220","30","54","red-104","red","724","sampling-task","77","1439988","0.0-5.0-0.61-0.61","4","wbuls3e3","high"
"6","4","free","220","30","54","red-54","red","790","sampling-task","78","1442308","0.0-5.0-0.62-0.62","4","wbuls3e3","high"
"6","5","free","220","30","51","red-102","red","703","sampling-task","79","1444020","0.0-5.0-0.63-0.63","4","wbuls3e3","high"
"6","6","free","220","30","27","red-215","red","629","sampling-task","80","1447292","0.0-5.0-0.64-0.64","4","wbuls3e3","high"
"6","7","free","220","30","31","red-11","red","958","sampling-task","81","1449620","0.0-5.0-0.65-0.65","4","wbuls3e3","high"
"6","8","free","220","30","31","red-193","red","1198","sampling-task","82","1452868","0.0-5.0-0.66-0.66","4","wbuls3e3","high"
"6","9","free","220","30","13","red-211","red","702","sampling-task","83","1454916","0.0-5.0-0.67-0.67","4","wbuls3e3","high"
"6","10","free","220","30","44","red-191","red","694","sampling-task","84","1456836","0.0-5.0-0.68-0.68","4","wbuls3e3","high"
"6","11","free","220","30","24","red-158","red","597","sampling-task","85","1459092","0.0-5.0-0.69-0.69","4","wbuls3e3","high"
"6","12","free","220","30","23","red-122","red","750","sampling-task","86","1460932","0.0-5.0-0.70-0.70","4","wbuls3e3","high"
"6","13","free","220","30","34","red-149","red","982","sampling-task","87","1463268","0.0-5.0-0.71-0.71","4","wbuls3e3","high"
"6","14","free","220","30","38","red-179","red","556","sampling-task","88","1465212","0.0-5.0-0.72-0.72","4","wbuls3e3","high"
"6","15","free","220","30","22","red-101","red","829","sampling-task","89","1467444","0.0-5.0-0.73-0.73","4","wbuls3e3","high"
"6","16","free","220","30","71","red-200","red","798","sampling-task","90","1469813","0.0-5.0-0.74-0.74","4","wbuls3e3","high"
"6","17","free","220","30","29","red-88","red","596","sampling-task","91","1471557","0.0-5.0-0.75-0.75","4","wbuls3e3","high"
"6","18","free","220","30","36","red-55","red","605","sampling-task","92","1473668","0.0-5.0-0.76-0.76","4","wbuls3e3","high"
"6","19","free","220","30","-13","red-144","red","566","sampling-task","93","1475509","0.0-5.0-0.77-0.77","4","wbuls3e3","high"
"6","20","free","220","30","37","red-6","red","550","sampling-task","94","1477156","0.0-5.0-0.78-0.78","4","wbuls3e3","high"
"6","21","free","220","30","57","red-69","red","598","sampling-task","95","1478804","0.0-5.0-0.79-0.79","4","wbuls3e3","high"
"6","22","free","220","30","21","red-109","red","589","sampling-task","96","1480404","0.0-5.0-0.80-0.80","4","wbuls3e3","high"
"6","23","free","220","30","20","red-180","red","830","sampling-task","97","1482364","0.0-5.0-0.81-0.81","4","wbuls3e3","high"
"6","24","free","220","30","34","red-109","red","766","sampling-task","98","1484117","0.0-5.0-0.82-0.82","4","wbuls3e3","high"
"6","25","free","220","30","34","red-13","red","814","sampling-task","99","1485892","0.0-5.0-0.83-0.83","4","wbuls3e3","high"
"6","26","free","220","30","75","red-21","red","1030","sampling-task","100","1488029","0.0-5.0-0.84-0.84","4","wbuls3e3","high"
"6","27","free","220","30","8","red-117","red","748","sampling-task","101","1489820","0.0-5.0-0.85-0.85","4","wbuls3e3","high"
"6","28","free","220","30","54","red-66","red","854","sampling-task","102","1493069","0.0-5.0-0.86-0.86","4","wbuls3e3","high"
"6","29","free","220","30","12","red-192","red","1238","sampling-task","103","1495764","0.0-5.0-0.87-0.87","4","wbuls3e3","high"
"6","30","free","220","30","39","red-167","red","558","sampling-task","104","1497789","0.0-5.0-0.88-0.88","4","wbuls3e3","high"
"6","31","free","220","30","14","red-86","red","1118","sampling-task","105","1499924","0.0-5.0-0.89-0.89","4","wbuls3e3","high"
"6","32","free","220","30","36","red-87","red","1038","sampling-task","106","1502805","0.0-5.0-0.90-0.90","4","wbuls3e3","high"
