"round_number","sample_number","sampling_type","nSamples","mean","feedback","stimulus","stimulus_colour","rt","trial_type","trial_index","time_elapsed","internal_node_id","participant","randomID","condition"
"1","1","fixed","20","74","53","red-107","red","6550","sampling-task","6","218629","0.0-5.0-0.0-0.0","1","emfvnoh5","high"
"1","2","fixed","20","74","76","red-11","red","1749","sampling-task","7","222668","0.0-5.0-0.1-0.1","1","emfvnoh5","high"
"1","3","fixed","20","74","84","red-158","red","1214","sampling-task","8","225524","0.0-5.0-0.2-0.2","1","emfvnoh5","high"
"1","4","fixed","20","74","59","red-195","red","1070","sampling-task","9","228876","0.0-5.0-0.3-0.3","1","emfvnoh5","high"
"1","5","fixed","20","74","77","red-114","red","893","sampling-task","10","231540","0.0-5.0-0.4-0.4","1","emfvnoh5","high"
"1","6","fixed","20","74","100","red-20","red","1037","sampling-task","11","234828","0.0-5.0-0.5-0.5","1","emfvnoh5","high"
"1","7","fixed","20","74","74","red-66","red","2214","sampling-task","12","239524","0.0-5.0-0.6-0.6","1","emfvnoh5","high"
"1","8","fixed","20","74","87","red-126","red","2445","sampling-task","13","244987","0.0-5.0-0.7-0.7","1","emfvnoh5","high"
"1","9","fixed","20","74","99","red-77","red","1007","sampling-task","14","249179","0.0-5.0-0.8-0.8","1","emfvnoh5","high"
"1","10","fixed","20","74","84","red-20","red","862","sampling-task","15","251627","0.0-5.0-0.9-0.9","1","emfvnoh5","high"
"1","11","fixed","20","74","49","red-160","red","1526","sampling-task","16","255251","0.0-5.0-0.10-0.10","1","emfvnoh5","high"
"1","12","fixed","20","74","70","red-216","red","974","sampling-task","17","257459","0.0-5.0-0.11-0.11","1","emfvnoh5","high"
"1","13","fixed","20","74","60","red-14","red","790","sampling-task","18","259636","0.0-5.0-0.12-0.12","1","emfvnoh5","high"
"1","14","fixed","20","74","74","red-35","red","685","sampling-task","19","262595","0.0-5.0-0.13-0.13","1","emfvnoh5","high"
"1","15","fixed","20","74","107","red-211","red","910","sampling-task","20","265427","0.0-5.0-0.14-0.14","1","emfvnoh5","high"
"1","16","fixed","20","74","84","red-59","red","1077","sampling-task","21","267835","0.0-5.0-0.15-0.15","1","emfvnoh5","high"
"1","17","fixed","20","74","62","red-106","red","966","sampling-task","22","269779","0.0-5.0-0.16-0.16","1","emfvnoh5","high"
"1","18","fixed","20","74","95","red-125","red","990","sampling-task","23","273099","0.0-5.0-0.17-0.17","1","emfvnoh5","high"
"1","19","fixed","20","74","94","red-173","red","869","sampling-task","24","275235","0.0-5.0-0.18-0.18","1","emfvnoh5","high"
"1","20","fixed","20","74","95","red-10","red","933","sampling-task","25","277611","0.0-5.0-0.19-0.19","1","emfvnoh5","high"
"2","1","free","220","34","51","blue-71","blue","5276","sampling-task","28","329794","0.0-5.0-0.20-0.20","1","emfvnoh5","high"
"2","2","free","220","34","10","blue-78","blue","750","sampling-task","29","331698","0.0-5.0-0.21-0.21","1","emfvnoh5","high"
"2","3","free","220","34","62","blue-95","blue","694","sampling-task","30","333547","0.0-5.0-0.22-0.22","1","emfvnoh5","high"
"2","4","free","220","34","8","blue-127","blue","550","sampling-task","31","335611","0.0-5.0-0.23-0.23","1","emfvnoh5","high"
"2","5","free","220","34","22","blue-195","blue","630","sampling-task","32","337451","0.0-5.0-0.24-0.24","1","emfvnoh5","high"
"2","6","free","220","34","38","blue-21","blue","510","sampling-task","33","338962","0.0-5.0-0.25-0.25","1","emfvnoh5","high"
"2","7","free","220","34","20","blue-73","blue","462","sampling-task","34","340362","0.0-5.0-0.26-0.26","1","emfvnoh5","high"
"2","8","free","220","34","26","blue-73","blue","422","sampling-task","35","341699","0.0-5.0-0.27-0.27","1","emfvnoh5","high"
"2","9","free","220","34","5","blue-199","blue","358","sampling-task","36","343011","0.0-5.0-0.28-0.28","1","emfvnoh5","high"
"2","10","free","220","34","35","blue-83","blue","470","sampling-task","37","344834","0.0-5.0-0.29-0.29","1","emfvnoh5","high"
"2","11","free","220","34","9","blue-200","blue","454","sampling-task","38","346459","0.0-5.0-0.30-0.30","1","emfvnoh5","high"
"2","12","free","220","34","54","blue-149","blue","462","sampling-task","39","348035","0.0-5.0-0.31-0.31","1","emfvnoh5","high"
"2","13","free","220","34","67","blue-3","blue","582","sampling-task","40","349763","0.0-5.0-0.32-0.32","1","emfvnoh5","high"
"2","14","free","220","34","55","blue-176","blue","446","sampling-task","41","352131","0.0-5.0-0.33-0.33","1","emfvnoh5","high"
"2","15","free","220","34","17","blue-83","blue","966","sampling-task","42","354251","0.0-5.0-0.34-0.34","1","emfvnoh5","high"
"2","16","free","220","34","44","blue-15","blue","622","sampling-task","43","355731","0.0-5.0-0.35-0.35","1","emfvnoh5","high"
"2","17","free","220","34","-4","blue-19","blue","494","sampling-task","44","357299","0.0-5.0-0.36-0.36","1","emfvnoh5","high"
"2","18","free","220","34","57","blue-136","blue","582","sampling-task","45","358979","0.0-5.0-0.37-0.37","1","emfvnoh5","high"
"2","19","free","220","34","54","blue-150","blue","478","sampling-task","46","360395","0.0-5.0-0.38-0.38","1","emfvnoh5","high"
"2","20","free","220","34","51","blue-135","blue","406","sampling-task","47","361843","0.0-5.0-0.39-0.39","1","emfvnoh5","high"
"2","21","free","220","34","25","blue-111","blue","389","sampling-task","48","363242","0.0-5.0-0.40-0.40","1","emfvnoh5","high"
"2","22","free","220","34","22","blue-154","blue","422","sampling-task","49","364586","0.0-5.0-0.41-0.41","1","emfvnoh5","high"
"2","23","free","220","34","33","blue-46","blue","430","sampling-task","50","365986","0.0-5.0-0.42-0.42","1","emfvnoh5","high"
"2","24","free","220","34","64","blue-178","blue","446","sampling-task","51","367658","0.0-5.0-0.43-0.43","1","emfvnoh5","high"
"2","25","free","220","34","35","blue-157","blue","510","sampling-task","52","369498","0.0-5.0-0.44-0.44","1","emfvnoh5","high"
"2","26","free","220","34","27","blue-127","blue","485","sampling-task","53","370890","0.0-5.0-0.45-0.45","1","emfvnoh5","high"
"2","27","free","220","34","-20","blue-76","blue","510","sampling-task","54","372386","0.0-5.0-0.46-0.46","1","emfvnoh5","high"
"2","28","free","220","34","34","blue-79","blue","366","sampling-task","55","373618","0.0-5.0-0.47-0.47","1","emfvnoh5","high"
"2","29","free","220","34","50","blue-170","blue","423","sampling-task","56","375274","0.0-5.0-0.48-0.48","1","emfvnoh5","high"
"2","30","free","220","34","27","blue-216","blue","421","sampling-task","57","376986","0.0-5.0-0.49-0.49","1","emfvnoh5","high"
"2","31","free","220","34","63","blue-128","blue","397","sampling-task","58","378314","0.0-5.0-0.50-0.50","1","emfvnoh5","high"
"2","32","free","220","34","31","blue-116","blue","430","sampling-task","59","379578","0.0-5.0-0.51-0.51","1","emfvnoh5","high"
"2","33","free","220","34","20","blue-190","blue","446","sampling-task","60","380890","0.0-5.0-0.52-0.52","1","emfvnoh5","high"
"2","34","free","220","34","29","blue-41","blue","422","sampling-task","61","382346","0.0-5.0-0.53-0.53","1","emfvnoh5","high"
"2","35","free","220","34","38","blue-94","blue","469","sampling-task","62","384106","0.0-5.0-0.54-0.54","1","emfvnoh5","high"
"2","36","free","220","34","30","blue-156","blue","445","sampling-task","63","385498","0.0-5.0-0.55-0.55","1","emfvnoh5","high"
"2","37","free","220","34","62","blue-180","blue","359","sampling-task","64","386810","0.0-5.0-0.56-0.56","1","emfvnoh5","high"
"2","38","free","220","34","37","blue-81","blue","431","sampling-task","65","388242","0.0-5.0-0.57-0.57","1","emfvnoh5","high"
"2","39","free","220","34","44","blue-34","blue","421","sampling-task","66","389562","0.0-5.0-0.58-0.58","1","emfvnoh5","high"
"2","40","free","220","34","34","blue-100","blue","381","sampling-task","67","390834","0.0-5.0-0.59-0.59","1","emfvnoh5","high"
"2","41","free","220","34","26","blue-138","blue","439","sampling-task","68","392426","0.0-5.0-0.60-0.60","1","emfvnoh5","high"
"2","42","free","220","34","32","blue-149","blue","486","sampling-task","69","393762","0.0-5.0-0.61-0.61","1","emfvnoh5","high"
"2","43","free","220","34","25","blue-214","blue","406","sampling-task","70","395138","0.0-5.0-0.62-0.62","1","emfvnoh5","high"
"2","44","free","220","34","40","blue-137","blue","391","sampling-task","71","396402","0.0-5.0-0.63-0.63","1","emfvnoh5","high"
"2","45","free","220","34","0","blue-205","blue","294","sampling-task","72","397626","0.0-5.0-0.64-0.64","1","emfvnoh5","high"
"2","46","free","220","34","43","blue-178","blue","302","sampling-task","73","399034","0.0-5.0-0.65-0.65","1","emfvnoh5","high"
"2","47","free","220","34","45","blue-1","blue","358","sampling-task","74","400234","0.0-5.0-0.66-0.66","1","emfvnoh5","high"
"2","48","free","220","34","52","blue-206","blue","381","sampling-task","75","401562","0.0-5.0-0.67-0.67","1","emfvnoh5","high"
"2","49","free","220","34","24","blue-84","blue","422","sampling-task","76","402922","0.0-5.0-0.68-0.68","1","emfvnoh5","high"
"2","50","free","220","34","11","blue-25","blue","414","sampling-task","77","404602","0.0-5.0-0.69-0.69","1","emfvnoh5","high"
"2","51","free","220","34","-11","blue-213","blue","446","sampling-task","78","406074","0.0-5.0-0.70-0.70","1","emfvnoh5","high"
"2","52","free","220","34","18","blue-148","blue","397","sampling-task","79","409810","0.0-5.0-0.71-0.71","1","emfvnoh5","high"
"3","1","fixed","5","97","110","yellow-138","yellow","4773","sampling-task","82","442193","0.0-5.0-0.72-0.72","1","emfvnoh5","high"
"3","2","fixed","5","97","73","yellow-168","yellow","446","sampling-task","83","443737","0.0-5.0-0.73-0.73","1","emfvnoh5","high"
"3","3","fixed","5","97","86","yellow-182","yellow","910","sampling-task","84","445745","0.0-5.0-0.74-0.74","1","emfvnoh5","high"
"3","4","fixed","5","97","86","yellow-198","yellow","775","sampling-task","85","447569","0.0-5.0-0.75-0.75","1","emfvnoh5","high"
"3","5","fixed","5","97","68","yellow-183","yellow","654","sampling-task","86","449145","0.0-5.0-0.76-0.76","1","emfvnoh5","high"
"4","1","free","220","51","62","green-214","green","2757","sampling-task","89","483323","0.0-5.0-0.77-0.77","1","emfvnoh5","high"
"4","2","free","220","51","22","green-16","green","477","sampling-task","90","485027","0.0-5.0-0.78-0.78","1","emfvnoh5","high"
"4","3","free","220","51","50","green-91","green","374","sampling-task","91","486515","0.0-5.0-0.79-0.79","1","emfvnoh5","high"
"4","4","free","220","51","24","green-143","green","389","sampling-task","92","487939","0.0-5.0-0.80-0.80","1","emfvnoh5","high"
"4","5","free","220","51","49","green-8","green","357","sampling-task","93","489315","0.0-5.0-0.81-0.81","1","emfvnoh5","high"
"4","6","free","220","51","40","green-11","green","414","sampling-task","94","491011","0.0-5.0-0.82-0.82","1","emfvnoh5","high"
"4","7","free","220","51","82","green-185","green","373","sampling-task","95","493363","0.0-5.0-0.83-0.83","1","emfvnoh5","high"
"4","8","free","220","51","53","green-52","green","429","sampling-task","96","494699","0.0-5.0-0.84-0.84","1","emfvnoh5","high"
"4","9","free","220","51","41","green-17","green","509","sampling-task","97","496075","0.0-5.0-0.85-0.85","1","emfvnoh5","high"
"4","10","free","220","51","15","green-185","green","382","sampling-task","98","497291","0.0-5.0-0.86-0.86","1","emfvnoh5","high"
"4","11","free","220","51","38","green-164","green","367","sampling-task","99","498539","0.0-5.0-0.87-0.87","1","emfvnoh5","high"
"4","12","free","220","51","46","green-49","green","437","sampling-task","100","499843","0.0-5.0-0.88-0.88","1","emfvnoh5","high"
"4","13","free","220","51","45","green-10","green","478","sampling-task","101","501619","0.0-5.0-0.89-0.89","1","emfvnoh5","high"
"4","14","free","220","51","71","green-101","green","438","sampling-task","102","502915","0.0-5.0-0.90-0.90","1","emfvnoh5","high"
"4","15","free","220","51","58","green-27","green","398","sampling-task","103","504179","0.0-5.0-0.91-0.91","1","emfvnoh5","high"
"4","16","free","220","51","26","green-89","green","405","sampling-task","104","505539","0.0-5.0-0.92-0.92","1","emfvnoh5","high"
"4","17","free","220","51","27","green-180","green","390","sampling-task","105","506779","0.0-5.0-0.93-0.93","1","emfvnoh5","high"
"4","18","free","220","51","34","green-113","green","469","sampling-task","106","508115","0.0-5.0-0.94-0.94","1","emfvnoh5","high"
"4","19","free","220","51","55","green-10","green","413","sampling-task","107","509435","0.0-5.0-0.95-0.95","1","emfvnoh5","high"
"4","20","free","220","51","52","green-169","green","437","sampling-task","108","510795","0.0-5.0-0.96-0.96","1","emfvnoh5","high"
"4","21","free","220","51","45","green-17","green","413","sampling-task","109","512131","0.0-5.0-0.97-0.97","1","emfvnoh5","high"
"4","22","free","220","51","38","green-212","green","533","sampling-task","110","513651","0.0-5.0-0.98-0.98","1","emfvnoh5","high"
"4","23","free","220","51","45","green-162","green","478","sampling-task","111","514955","0.0-5.0-0.99-0.99","1","emfvnoh5","high"
"4","24","free","220","51","33","green-46","green","366","sampling-task","112","516155","0.0-5.0-0.100-0.100","1","emfvnoh5","high"
"4","25","free","220","51","64","green-156","green","325","sampling-task","113","517291","0.0-5.0-0.101-0.101","1","emfvnoh5","high"
"4","26","free","220","51","42","green-146","green","358","sampling-task","114","518491","0.0-5.0-0.102-0.102","1","emfvnoh5","high"
"4","27","free","220","51","5","green-201","green","373","sampling-task","115","519899","0.0-5.0-0.103-0.103","1","emfvnoh5","high"
"4","28","free","220","51","68","green-172","green","325","sampling-task","116","521171","0.0-5.0-0.104-0.104","1","emfvnoh5","high"
"4","29","free","220","51","72","green-137","green","389","sampling-task","117","522475","0.0-5.0-0.105-0.105","1","emfvnoh5","high"
"4","30","free","220","51","45","green-171","green","422","sampling-task","118","523739","0.0-5.0-0.106-0.106","1","emfvnoh5","high"
"4","31","free","220","51","40","green-67","green","445","sampling-task","119","525251","0.0-5.0-0.107-0.107","1","emfvnoh5","high"
"4","32","free","220","51","32","green-19","green","453","sampling-task","120","526699","0.0-5.0-0.108-0.108","1","emfvnoh5","high"
"4","33","free","220","51","39","green-2","green","445","sampling-task","121","528379","0.0-5.0-0.109-0.109","1","emfvnoh5","high"
"4","34","free","220","51","36","green-146","green","453","sampling-task","122","529843","0.0-5.0-0.110-0.110","1","emfvnoh5","high"
"4","35","free","220","51","57","green-28","green","733","sampling-task","123","532035","0.0-5.0-0.111-0.111","1","emfvnoh5","high"
"4","36","free","220","51","42","green-120","green","653","sampling-task","124","533763","0.0-5.0-0.112-0.112","1","emfvnoh5","high"
"4","37","free","220","51","76","green-64","green","630","sampling-task","125","535299","0.0-5.0-0.113-0.113","1","emfvnoh5","high"
"4","38","free","220","51","11","green-142","green","437","sampling-task","126","536643","0.0-5.0-0.114-0.114","1","emfvnoh5","high"
"4","39","free","220","51","70","green-12","green","445","sampling-task","127","538195","0.0-5.0-0.115-0.115","1","emfvnoh5","high"
"4","40","free","220","51","68","green-212","green","405","sampling-task","128","539579","0.0-5.0-0.116-0.116","1","emfvnoh5","high"
"4","41","free","220","51","60","green-25","green","533","sampling-task","129","541315","0.0-5.0-0.117-0.117","1","emfvnoh5","high"
"4","42","free","220","51","41","green-189","green","469","sampling-task","130","542867","0.0-5.0-0.118-0.118","1","emfvnoh5","high"
"4","43","free","220","51","34","green-89","green","444","sampling-task","131","544258","0.0-5.0-0.119-0.119","1","emfvnoh5","high"
"4","44","free","220","51","87","green-94","green","421","sampling-task","132","546290","0.0-5.0-0.120-0.120","1","emfvnoh5","high"
"4","45","free","220","51","56","green-111","green","453","sampling-task","133","547714","0.0-5.0-0.121-0.121","1","emfvnoh5","high"
"4","46","free","220","51","71","green-28","green","422","sampling-task","134","549202","0.0-5.0-0.122-0.122","1","emfvnoh5","high"
"4","47","free","220","51","0","green-83","green","518","sampling-task","135","550538","0.0-5.0-0.123-0.123","1","emfvnoh5","high"
"4","48","free","220","51","70","green-175","green","398","sampling-task","136","551970","0.0-5.0-0.124-0.124","1","emfvnoh5","high"
"4","49","free","220","51","53","green-145","green","445","sampling-task","137","553482","0.0-5.0-0.125-0.125","1","emfvnoh5","high"
"4","50","free","220","51","35","green-80","green","414","sampling-task","138","554794","0.0-5.0-0.126-0.126","1","emfvnoh5","high"
"4","51","free","220","51","30","green-176","green","437","sampling-task","139","556114","0.0-5.0-0.127-0.127","1","emfvnoh5","high"
"4","52","free","220","51","72","green-176","green","430","sampling-task","140","557578","0.0-5.0-0.128-0.128","1","emfvnoh5","high"
"4","53","free","220","51","58","green-4","green","446","sampling-task","141","558954","0.0-5.0-0.129-0.129","1","emfvnoh5","high"
"4","54","free","220","51","74","green-177","green","438","sampling-task","142","560218","0.0-5.0-0.130-0.130","1","emfvnoh5","high"
"4","55","free","220","51","86","green-100","green","390","sampling-task","143","562042","0.0-5.0-0.131-0.131","1","emfvnoh5","high"
"5","1","fixed","10","10","-10","orange-107","orange","3044","sampling-task","146","591666","0.0-5.0-0.132-0.132","1","emfvnoh5","high"
"5","2","fixed","10","10","0","orange-97","orange","468","sampling-task","147","593034","0.0-5.0-0.133-0.133","1","emfvnoh5","high"
"5","3","fixed","10","10","-1","orange-59","orange","406","sampling-task","148","594298","0.0-5.0-0.134-0.134","1","emfvnoh5","high"
"5","4","fixed","10","10","23","orange-130","orange","430","sampling-task","149","598826","0.0-5.0-0.135-0.135","1","emfvnoh5","high"
"5","5","fixed","10","10","-19","orange-110","orange","653","sampling-task","150","600378","0.0-5.0-0.136-0.136","1","emfvnoh5","high"
"5","6","fixed","10","10","-39","orange-47","orange","493","sampling-task","151","601890","0.0-5.0-0.137-0.137","1","emfvnoh5","high"
"5","7","fixed","10","10","8","orange-163","orange","438","sampling-task","152","603281","0.0-5.0-0.138-0.138","1","emfvnoh5","high"
"5","8","fixed","10","10","-3","orange-33","orange","589","sampling-task","153","604745","0.0-5.0-0.139-0.139","1","emfvnoh5","high"
"5","9","fixed","10","10","31","orange-206","orange","709","sampling-task","154","606737","0.0-5.0-0.140-0.140","1","emfvnoh5","high"
"5","10","fixed","10","10","-11","orange-118","orange","565","sampling-task","155","608585","0.0-5.0-0.141-0.141","1","emfvnoh5","high"
"6","1","free","220","110","93","purple-34","purple","2820","sampling-task","158","640521","0.0-5.0-0.142-0.142","1","emfvnoh5","high"
"6","2","free","220","110","129","purple-34","purple","773","sampling-task","159","642513","0.0-5.0-0.143-0.143","1","emfvnoh5","high"
"6","3","free","220","110","106","purple-8","purple","462","sampling-task","160","644113","0.0-5.0-0.144-0.144","1","emfvnoh5","high"
"6","4","free","220","110","84","purple-6","purple","389","sampling-task","161","645529","0.0-5.0-0.145-0.145","1","emfvnoh5","high"
"6","5","free","220","110","94","purple-95","purple","501","sampling-task","162","646993","0.0-5.0-0.146-0.146","1","emfvnoh5","high"
"6","6","free","220","110","126","purple-123","purple","373","sampling-task","163","648441","0.0-5.0-0.147-0.147","1","emfvnoh5","high"
"6","7","free","220","110","127","purple-157","purple","453","sampling-task","164","649761","0.0-5.0-0.148-0.148","1","emfvnoh5","high"
"6","8","free","220","110","104","purple-14","purple","429","sampling-task","165","651057","0.0-5.0-0.149-0.149","1","emfvnoh5","high"
"6","9","free","220","110","118","purple-216","purple","421","sampling-task","166","652401","0.0-5.0-0.150-0.150","1","emfvnoh5","high"
"6","10","free","220","110","124","purple-107","purple","389","sampling-task","167","653801","0.0-5.0-0.151-0.151","1","emfvnoh5","high"
"6","11","free","220","110","130","purple-191","purple","349","sampling-task","168","655265","0.0-5.0-0.152-0.152","1","emfvnoh5","high"
"6","12","free","220","110","135","purple-99","purple","381","sampling-task","169","656817","0.0-5.0-0.153-0.153","1","emfvnoh5","high"
"6","13","free","220","110","121","purple-99","purple","405","sampling-task","170","658169","0.0-5.0-0.154-0.154","1","emfvnoh5","high"
"6","14","free","220","110","111","purple-101","purple","389","sampling-task","171","659401","0.0-5.0-0.155-0.155","1","emfvnoh5","high"
"6","15","free","220","110","142","purple-187","purple","333","sampling-task","172","661729","0.0-5.0-0.156-0.156","1","emfvnoh5","high"
"6","16","free","220","110","118","purple-142","purple","333","sampling-task","173","662936","0.0-5.0-0.157-0.157","1","emfvnoh5","high"
"6","17","free","220","110","122","purple-42","purple","389","sampling-task","174","664384","0.0-5.0-0.158-0.158","1","emfvnoh5","high"
"6","18","free","220","110","105","purple-16","purple","389","sampling-task","175","665752","0.0-5.0-0.159-0.159","1","emfvnoh5","high"
"6","19","free","220","110","101","purple-194","purple","357","sampling-task","176","667135","0.0-5.0-0.160-0.160","1","emfvnoh5","high"
"6","20","free","220","110","90","purple-107","purple","365","sampling-task","177","668720","0.0-5.0-0.161-0.161","1","emfvnoh5","high"
