"round_number","sample_number","sampling_type","nSamples","mean","feedback","stimulus","stimulus_colour","rt","trial_type","trial_index","time_elapsed","internal_node_id","participant","randomID","condition"
"1","1","fixed","5","78","38","green-8","green","6961","sampling-task","9","424973","0.0-5.0-0.0-0.0","49","pml4uaew","low"
"1","2","fixed","5","78","68","green-8","green","3814","sampling-task","10","440748","0.0-5.0-0.1-0.1","49","pml4uaew","low"
"1","3","fixed","5","78","104","green-8","green","1326","sampling-task","11","448324","0.0-5.0-0.2-0.2","49","pml4uaew","low"
"1","4","fixed","5","78","10","green-8","green","958","sampling-task","12","450525","0.0-5.0-0.3-0.3","49","pml4uaew","low"
"1","5","fixed","5","78","49","green-8","green","686","sampling-task","13","455861","0.0-5.0-0.4-0.4","49","pml4uaew","low"
"2","1","free","220","32","-16","red-155","red","2747","sampling-task","16","510452","0.0-5.0-0.5-0.5","49","pml4uaew","low"
"2","2","free","220","32","52","red-155","red","463","sampling-task","17","512108","0.0-5.0-0.6-0.6","49","pml4uaew","low"
"2","3","free","220","32","18","red-155","red","335","sampling-task","18","513324","0.0-5.0-0.7-0.7","49","pml4uaew","low"
"2","4","free","220","32","49","red-155","red","263","sampling-task","19","514532","0.0-5.0-0.8-0.8","49","pml4uaew","low"
"2","5","free","220","32","20","red-155","red","286","sampling-task","20","515644","0.0-5.0-0.9-0.9","49","pml4uaew","low"
"2","6","free","220","32","20","red-155","red","263","sampling-task","21","516820","0.0-5.0-0.10-0.10","49","pml4uaew","low"
"2","7","free","220","32","86","red-155","red","286","sampling-task","22","518108","0.0-5.0-0.11-0.11","49","pml4uaew","low"
"2","8","free","220","32","33","red-155","red","327","sampling-task","23","519316","0.0-5.0-0.12-0.12","49","pml4uaew","low"
"2","9","free","220","32","24","red-155","red","295","sampling-task","24","520428","0.0-5.0-0.13-0.13","49","pml4uaew","low"
"2","10","free","220","32","32","red-155","red","239","sampling-task","25","521548","0.0-5.0-0.14-0.14","49","pml4uaew","low"
"2","11","free","220","32","20","red-155","red","263","sampling-task","26","522956","0.0-5.0-0.15-0.15","49","pml4uaew","low"
"3","1","fixed","10","93","63","orange-116","orange","2684","sampling-task","29","551363","0.0-5.0-0.16-0.16","49","pml4uaew","low"
"3","2","fixed","10","93","109","orange-116","orange","421","sampling-task","30","552771","0.0-5.0-0.17-0.17","49","pml4uaew","low"
"3","3","fixed","10","93","100","orange-116","orange","287","sampling-task","31","553883","0.0-5.0-0.18-0.18","49","pml4uaew","low"
"3","4","fixed","10","93","96","orange-116","orange","319","sampling-task","32","555027","0.0-5.0-0.19-0.19","49","pml4uaew","low"
"3","5","fixed","10","93","89","orange-116","orange","335","sampling-task","33","556179","0.0-5.0-0.20-0.20","49","pml4uaew","low"
"3","6","fixed","10","93","86","orange-116","orange","367","sampling-task","34","557467","0.0-5.0-0.21-0.21","49","pml4uaew","low"
"3","7","fixed","10","93","92","orange-116","orange","279","sampling-task","35","559171","0.0-5.0-0.22-0.22","49","pml4uaew","low"
"3","8","fixed","10","93","112","orange-116","orange","254","sampling-task","36","560443","0.0-5.0-0.23-0.23","49","pml4uaew","low"
"3","9","fixed","10","93","78","orange-116","orange","327","sampling-task","37","561555","0.0-5.0-0.24-0.24","49","pml4uaew","low"
"3","10","fixed","10","93","85","orange-116","orange","311","sampling-task","38","562675","0.0-5.0-0.25-0.25","49","pml4uaew","low"
"4","1","free","220","16","1","blue-55","blue","1308","sampling-task","41","592315","0.0-5.0-0.26-0.26","49","pml4uaew","low"
"4","2","free","220","16","46","blue-55","blue","302","sampling-task","42","593363","0.0-5.0-0.27-0.27","49","pml4uaew","low"
"4","3","free","220","16","33","blue-55","blue","325","sampling-task","43","594483","0.0-5.0-0.28-0.28","49","pml4uaew","low"
"4","4","free","220","16","10","blue-55","blue","758","sampling-task","44","595907","0.0-5.0-0.29-0.29","49","pml4uaew","low"
"4","5","free","220","16","26","blue-55","blue","335","sampling-task","45","597259","0.0-5.0-0.30-0.30","49","pml4uaew","low"
"4","6","free","220","16","25","blue-55","blue","271","sampling-task","46","598243","0.0-5.0-0.31-0.31","49","pml4uaew","low"
"4","7","free","220","16","6","blue-55","blue","445","sampling-task","47","599483","0.0-5.0-0.32-0.32","49","pml4uaew","low"
"4","8","free","220","16","18","blue-55","blue","390","sampling-task","48","600659","0.0-5.0-0.33-0.33","49","pml4uaew","low"
"4","9","free","220","16","23","blue-55","blue","429","sampling-task","49","601835","0.0-5.0-0.34-0.34","49","pml4uaew","low"
"4","10","free","220","16","64","blue-55","blue","319","sampling-task","50","602947","0.0-5.0-0.35-0.35","49","pml4uaew","low"
"4","11","free","220","16","23","blue-55","blue","375","sampling-task","51","604411","0.0-5.0-0.36-0.36","49","pml4uaew","low"
"5","1","fixed","20","56","35","purple-115","purple","1500","sampling-task","54","626707","0.0-5.0-0.37-0.37","49","pml4uaew","low"
"5","2","fixed","20","56","50","purple-115","purple","391","sampling-task","55","627883","0.0-5.0-0.38-0.38","49","pml4uaew","low"
"5","3","fixed","20","56","58","purple-115","purple","279","sampling-task","56","628955","0.0-5.0-0.39-0.39","49","pml4uaew","low"
"5","4","fixed","20","56","46","purple-115","purple","279","sampling-task","57","629987","0.0-5.0-0.40-0.40","49","pml4uaew","low"
"5","5","fixed","20","56","38","purple-115","purple","254","sampling-task","58","631035","0.0-5.0-0.41-0.41","49","pml4uaew","low"
"5","6","fixed","20","56","59","purple-115","purple","287","sampling-task","59","632131","0.0-5.0-0.42-0.42","49","pml4uaew","low"
"5","7","fixed","20","56","81","purple-115","purple","286","sampling-task","60","633203","0.0-5.0-0.43-0.43","49","pml4uaew","low"
"5","8","fixed","20","56","60","purple-115","purple","446","sampling-task","61","634467","0.0-5.0-0.44-0.44","49","pml4uaew","low"
"5","9","fixed","20","56","87","purple-115","purple","335","sampling-task","62","635739","0.0-5.0-0.45-0.45","49","pml4uaew","low"
"5","10","fixed","20","56","67","purple-115","purple","326","sampling-task","63","637219","0.0-5.0-0.46-0.46","49","pml4uaew","low"
"5","11","fixed","20","56","110","purple-115","purple","287","sampling-task","64","640675","0.0-5.0-0.47-0.47","49","pml4uaew","low"
"5","12","fixed","20","56","37","purple-115","purple","415","sampling-task","65","641899","0.0-5.0-0.48-0.48","49","pml4uaew","low"
"5","13","fixed","20","56","49","purple-115","purple","302","sampling-task","66","643083","0.0-5.0-0.49-0.49","49","pml4uaew","low"
"5","14","fixed","20","56","65","purple-115","purple","351","sampling-task","67","644163","0.0-5.0-0.50-0.50","49","pml4uaew","low"
"5","15","fixed","20","56","57","purple-115","purple","295","sampling-task","68","645331","0.0-5.0-0.51-0.51","49","pml4uaew","low"
"5","16","fixed","20","56","48","purple-115","purple","670","sampling-task","69","646803","0.0-5.0-0.52-0.52","49","pml4uaew","low"
"5","17","fixed","20","56","56","purple-115","purple","351","sampling-task","70","647915","0.0-5.0-0.53-0.53","49","pml4uaew","low"
"5","18","fixed","20","56","56","purple-115","purple","606","sampling-task","71","649483","0.0-5.0-0.54-0.54","49","pml4uaew","low"
"5","19","fixed","20","56","98","purple-115","purple","319","sampling-task","72","650539","0.0-5.0-0.55-0.55","49","pml4uaew","low"
"5","20","fixed","20","56","62","purple-115","purple","318","sampling-task","73","651851","0.0-5.0-0.56-0.56","49","pml4uaew","low"
"6","1","free","220","113","140","yellow-64","yellow","1973","sampling-task","76","680467","0.0-5.0-0.57-0.57","49","pml4uaew","low"
"6","2","free","220","113","145","yellow-64","yellow","230","sampling-task","77","681483","0.0-5.0-0.58-0.58","49","pml4uaew","low"
"6","3","free","220","113","127","yellow-64","yellow","254","sampling-task","78","682596","0.0-5.0-0.59-0.59","49","pml4uaew","low"
"6","4","free","220","113","129","yellow-64","yellow","278","sampling-task","79","683547","0.0-5.0-0.60-0.60","49","pml4uaew","low"
"6","5","free","220","113","106","yellow-64","yellow","294","sampling-task","80","684540","0.0-5.0-0.61-0.61","49","pml4uaew","low"
"6","6","free","220","113","113","yellow-64","yellow","318","sampling-task","81","685483","0.0-5.0-0.62-0.62","49","pml4uaew","low"
"6","7","free","220","113","101","yellow-64","yellow","334","sampling-task","82","686492","0.0-5.0-0.63-0.63","49","pml4uaew","low"
"6","8","free","220","113","101","yellow-64","yellow","301","sampling-task","83","687555","0.0-5.0-0.64-0.64","49","pml4uaew","low"
"6","9","free","220","113","107","yellow-64","yellow","318","sampling-task","84","688595","0.0-5.0-0.65-0.65","49","pml4uaew","low"
"6","10","free","220","113","108","yellow-64","yellow","382","sampling-task","85","689763","0.0-5.0-0.66-0.66","49","pml4uaew","low"
"6","11","free","220","113","114","yellow-64","yellow","302","sampling-task","86","691035","0.0-5.0-0.67-0.67","49","pml4uaew","low"
