"round_number","sample_number","sampling_type","nSamples","mean","feedback","stimulus","stimulus_colour","rt","trial_type","trial_index","time_elapsed","internal_node_id","participant","randomID","condition"
"1","1","fixed","5","73","106","green-193","green","21460","sampling-task","6","260059","0.0-5.0-0.0-0.0","115","0p2xcc2d","high"
"1","2","fixed","5","73","83","green-132","green","2565","sampling-task","7","266795","0.0-5.0-0.1-0.1","115","0p2xcc2d","high"
"1","3","fixed","5","73","83","green-193","green","5086","sampling-task","8","276114","0.0-5.0-0.2-0.2","115","0p2xcc2d","high"
"1","4","fixed","5","73","72","green-70","green","3876","sampling-task","9","283912","0.0-5.0-0.3-0.3","115","0p2xcc2d","high"
"1","5","fixed","5","73","86","green-70","green","2766","sampling-task","10","291265","0.0-5.0-0.4-0.4","115","0p2xcc2d","high"
"2","1","free","220","52","37","blue-179","blue","4538","sampling-task","13","345527","0.0-5.0-0.5-0.5","115","0p2xcc2d","high"
"2","2","free","220","52","7","blue-51","blue","3374","sampling-task","14","351151","0.0-5.0-0.6-0.6","115","0p2xcc2d","high"
"2","3","free","220","52","103","blue-206","blue","4078","sampling-task","15","358503","0.0-5.0-0.7-0.7","115","0p2xcc2d","high"
"2","4","free","220","52","65","blue-199","blue","2486","sampling-task","16","363615","0.0-5.0-0.8-0.8","115","0p2xcc2d","high"
"2","5","free","220","52","68","blue-54","blue","1758","sampling-task","17","367927","0.0-5.0-0.9-0.9","115","0p2xcc2d","high"
"2","6","free","220","52","63","blue-62","blue","1134","sampling-task","18","372799","0.0-5.0-0.10-0.10","115","0p2xcc2d","high"
"2","7","free","220","52","42","blue-102","blue","1398","sampling-task","19","375855","0.0-5.0-0.11-0.11","115","0p2xcc2d","high"
"2","8","free","220","52","65","blue-124","blue","1694","sampling-task","20","379327","0.0-5.0-0.12-0.12","115","0p2xcc2d","high"
"2","9","free","220","52","17","blue-24","blue","1374","sampling-task","21","382095","0.0-5.0-0.13-0.13","115","0p2xcc2d","high"
"2","10","free","220","52","45","blue-188","blue","1158","sampling-task","22","385319","0.0-5.0-0.14-0.14","115","0p2xcc2d","high"
"2","11","free","220","52","64","blue-93","blue","1686","sampling-task","23","389695","0.0-5.0-0.15-0.15","115","0p2xcc2d","high"
"2","12","free","220","52","84","blue-134","blue","854","sampling-task","24","394815","0.0-5.0-0.16-0.16","115","0p2xcc2d","high"
"2","13","free","220","52","36","blue-104","blue","1086","sampling-task","25","397167","0.0-5.0-0.17-0.17","115","0p2xcc2d","high"
"2","14","free","220","52","37","blue-215","blue","989","sampling-task","26","399287","0.0-5.0-0.18-0.18","115","0p2xcc2d","high"
"2","15","free","220","52","39","blue-183","blue","1070","sampling-task","27","404813","0.0-5.0-0.19-0.19","115","0p2xcc2d","high"
"2","16","free","220","52","84","blue-79","blue","742","sampling-task","28","407021","0.0-5.0-0.20-0.20","115","0p2xcc2d","high"
"2","17","free","220","52","68","blue-28","blue","1055","sampling-task","29","409325","0.0-5.0-0.21-0.21","115","0p2xcc2d","high"
"2","18","free","220","52","55","blue-143","blue","942","sampling-task","30","411773","0.0-5.0-0.22-0.22","115","0p2xcc2d","high"
"2","19","free","220","52","38","blue-13","blue","959","sampling-task","31","414517","0.0-5.0-0.23-0.23","115","0p2xcc2d","high"
"2","20","free","220","52","27","blue-81","blue","1070","sampling-task","32","416789","0.0-5.0-0.24-0.24","115","0p2xcc2d","high"
"2","21","free","220","52","64","blue-154","blue","974","sampling-task","33","419085","0.0-5.0-0.25-0.25","115","0p2xcc2d","high"
"2","22","free","220","52","52","blue-17","blue","1390","sampling-task","34","422021","0.0-5.0-0.26-0.26","115","0p2xcc2d","high"
"2","23","free","220","52","74","blue-121","blue","863","sampling-task","35","424117","0.0-5.0-0.27-0.27","115","0p2xcc2d","high"
"2","24","free","220","52","54","blue-27","blue","959","sampling-task","36","426365","0.0-5.0-0.28-0.28","115","0p2xcc2d","high"
"2","25","free","220","52","65","blue-157","blue","814","sampling-task","37","428909","0.0-5.0-0.29-0.29","115","0p2xcc2d","high"
"2","26","free","220","52","41","blue-18","blue","837","sampling-task","38","431141","0.0-5.0-0.30-0.30","115","0p2xcc2d","high"
"2","27","free","220","52","32","blue-170","blue","701","sampling-task","39","433037","0.0-5.0-0.31-0.31","115","0p2xcc2d","high"
"2","28","free","220","52","81","blue-25","blue","735","sampling-task","40","435413","0.0-5.0-0.32-0.32","115","0p2xcc2d","high"
"2","29","free","220","52","71","blue-109","blue","1710","sampling-task","41","438197","0.0-5.0-0.33-0.33","115","0p2xcc2d","high"
"2","30","free","220","52","79","blue-185","blue","966","sampling-task","42","440373","0.0-5.0-0.34-0.34","115","0p2xcc2d","high"
"2","31","free","220","52","30","blue-6","blue","750","sampling-task","43","442350","0.0-5.0-0.35-0.35","115","0p2xcc2d","high"
"2","32","free","220","52","45","blue-138","blue","662","sampling-task","44","444013","0.0-5.0-0.36-0.36","115","0p2xcc2d","high"
"2","33","free","220","52","39","blue-66","blue","695","sampling-task","45","445781","0.0-5.0-0.37-0.37","115","0p2xcc2d","high"
"2","34","free","220","52","27","blue-140","blue","751","sampling-task","46","447917","0.0-5.0-0.38-0.38","115","0p2xcc2d","high"
"2","35","free","220","52","55","blue-200","blue","623","sampling-task","47","450261","0.0-5.0-0.39-0.39","115","0p2xcc2d","high"
"2","36","free","220","52","30","blue-145","blue","406","sampling-task","48","452509","0.0-5.0-0.40-0.40","115","0p2xcc2d","high"
"2","37","free","220","52","34","blue-23","blue","847","sampling-task","49","454453","0.0-5.0-0.41-0.41","115","0p2xcc2d","high"
"2","38","free","220","52","88","blue-41","blue","693","sampling-task","50","456269","0.0-5.0-0.42-0.42","115","0p2xcc2d","high"
"2","39","free","220","52","32","blue-120","blue","662","sampling-task","51","458469","0.0-5.0-0.43-0.43","115","0p2xcc2d","high"
"2","40","free","220","52","108","blue-49","blue","638","sampling-task","52","461517","0.0-5.0-0.44-0.44","115","0p2xcc2d","high"
"3","1","fixed","20","93","109","orange-138","orange","5205","sampling-task","55","499916","0.0-5.0-0.45-0.45","115","0p2xcc2d","high"
"3","2","fixed","20","93","122","orange-94","orange","2126","sampling-task","56","503772","0.0-5.0-0.46-0.46","115","0p2xcc2d","high"
"3","3","fixed","20","93","128","orange-119","orange","1534","sampling-task","57","506835","0.0-5.0-0.47-0.47","115","0p2xcc2d","high"
"3","4","fixed","20","93","78","orange-23","orange","3238","sampling-task","58","511772","0.0-5.0-0.48-0.48","115","0p2xcc2d","high"
"3","5","fixed","20","93","56","orange-98","orange","2302","sampling-task","59","515291","0.0-5.0-0.49-0.49","115","0p2xcc2d","high"
"3","6","fixed","20","93","100","orange-136","orange","2286","sampling-task","60","519227","0.0-5.0-0.50-0.50","115","0p2xcc2d","high"
"3","7","fixed","20","93","115","orange-26","orange","1734","sampling-task","61","523491","0.0-5.0-0.51-0.51","115","0p2xcc2d","high"
"3","8","fixed","20","93","97","orange-6","orange","1706","sampling-task","62","526576","0.0-5.0-0.52-0.52","115","0p2xcc2d","high"
"3","9","fixed","20","93","100","orange-142","orange","1718","sampling-task","63","529440","0.0-5.0-0.53-0.53","115","0p2xcc2d","high"
"3","10","fixed","20","93","85","orange-65","orange","1294","sampling-task","64","531984","0.0-5.0-0.54-0.54","115","0p2xcc2d","high"
"3","11","fixed","20","93","112","orange-16","orange","1430","sampling-task","65","534536","0.0-5.0-0.55-0.55","115","0p2xcc2d","high"
"3","12","fixed","20","93","127","orange-5","orange","1702","sampling-task","66","537904","0.0-5.0-0.56-0.56","115","0p2xcc2d","high"
"3","13","fixed","20","93","64","orange-177","orange","1214","sampling-task","67","540800","0.0-5.0-0.57-0.57","115","0p2xcc2d","high"
"3","14","fixed","20","93","73","orange-219","orange","1350","sampling-task","68","543808","0.0-5.0-0.58-0.58","115","0p2xcc2d","high"
"3","15","fixed","20","93","66","orange-50","orange","1029","sampling-task","69","546184","0.0-5.0-0.59-0.59","115","0p2xcc2d","high"
"3","16","fixed","20","93","88","orange-54","orange","1822","sampling-task","70","549280","0.0-5.0-0.60-0.60","115","0p2xcc2d","high"
"3","17","fixed","20","93","110","orange-63","orange","1166","sampling-task","71","551832","0.0-5.0-0.61-0.61","115","0p2xcc2d","high"
"3","18","fixed","20","93","76","orange-38","orange","1486","sampling-task","72","554872","0.0-5.0-0.62-0.62","115","0p2xcc2d","high"
"3","19","fixed","20","93","88","orange-60","orange","1373","sampling-task","73","557520","0.0-5.0-0.63-0.63","115","0p2xcc2d","high"
"3","20","fixed","20","93","87","orange-146","orange","2262","sampling-task","74","561424","0.0-5.0-0.64-0.64","115","0p2xcc2d","high"
"4","1","free","220","16","25","purple-129","purple","1692","sampling-task","77","580432","0.0-5.0-0.65-0.65","115","0p2xcc2d","high"
"4","2","free","220","16","-4","purple-7","purple","1165","sampling-task","78","584200","0.0-5.0-0.66-0.66","115","0p2xcc2d","high"
"4","3","free","220","16","-18","purple-147","purple","893","sampling-task","79","589720","0.0-5.0-0.67-0.67","115","0p2xcc2d","high"
"4","4","free","220","16","9","purple-149","purple","1102","sampling-task","80","592968","0.0-5.0-0.68-0.68","115","0p2xcc2d","high"
"4","5","free","220","16","-19","purple-209","purple","862","sampling-task","81","595416","0.0-5.0-0.69-0.69","115","0p2xcc2d","high"
"4","6","free","220","16","18","purple-59","purple","2718","sampling-task","82","599536","0.0-5.0-0.70-0.70","115","0p2xcc2d","high"
"4","7","free","220","16","18","purple-58","purple","1165","sampling-task","83","601912","0.0-5.0-0.71-0.71","115","0p2xcc2d","high"
"4","8","free","220","16","31","purple-54","purple","758","sampling-task","84","604480","0.0-5.0-0.72-0.72","115","0p2xcc2d","high"
"4","9","free","220","16","-1","purple-217","purple","789","sampling-task","85","606552","0.0-5.0-0.73-0.73","115","0p2xcc2d","high"
"4","10","free","220","16","-6","purple-36","purple","1126","sampling-task","86","609608","0.0-5.0-0.74-0.74","115","0p2xcc2d","high"
"4","11","free","220","16","-6","purple-112","purple","854","sampling-task","87","611720","0.0-5.0-0.75-0.75","115","0p2xcc2d","high"
"4","12","free","220","16","34","purple-86","purple","1118","sampling-task","88","614152","0.0-5.0-0.76-0.76","115","0p2xcc2d","high"
"4","13","free","220","16","27","purple-100","purple","1206","sampling-task","89","616544","0.0-5.0-0.77-0.77","115","0p2xcc2d","high"
"4","14","free","220","16","11","purple-146","purple","1118","sampling-task","90","618736","0.0-5.0-0.78-0.78","115","0p2xcc2d","high"
"4","15","free","220","16","7","purple-64","purple","1086","sampling-task","91","620832","0.0-5.0-0.79-0.79","115","0p2xcc2d","high"
"4","16","free","220","16","29","purple-77","purple","686","sampling-task","92","622536","0.0-5.0-0.80-0.80","115","0p2xcc2d","high"
"4","17","free","220","16","14","purple-121","purple","638","sampling-task","93","624048","0.0-5.0-0.81-0.81","115","0p2xcc2d","high"
"4","18","free","220","16","54","purple-114","purple","565","sampling-task","94","625624","0.0-5.0-0.82-0.82","115","0p2xcc2d","high"
"4","19","free","220","16","63","purple-35","purple","1310","sampling-task","95","628448","0.0-5.0-0.83-0.83","115","0p2xcc2d","high"
"4","20","free","220","16","27","purple-65","purple","789","sampling-task","96","630128","0.0-5.0-0.84-0.84","115","0p2xcc2d","high"
"4","21","free","220","16","60","purple-176","purple","982","sampling-task","97","632649","0.0-5.0-0.85-0.85","115","0p2xcc2d","high"
"4","22","free","220","16","61","purple-160","purple","742","sampling-task","98","634584","0.0-5.0-0.86-0.86","115","0p2xcc2d","high"
"4","23","free","220","16","-16","purple-41","purple","798","sampling-task","99","636792","0.0-5.0-0.87-0.87","115","0p2xcc2d","high"
"4","24","free","220","16","4","purple-10","purple","838","sampling-task","100","640424","0.0-5.0-0.88-0.88","115","0p2xcc2d","high"
"4","25","free","220","16","-2","purple-40","purple","614","sampling-task","101","642176","0.0-5.0-0.89-0.89","115","0p2xcc2d","high"
"4","26","free","220","16","5","purple-128","purple","822","sampling-task","102","643920","0.0-5.0-0.90-0.90","115","0p2xcc2d","high"
"4","27","free","220","16","35","purple-180","purple","1454","sampling-task","103","646384","0.0-5.0-0.91-0.91","115","0p2xcc2d","high"
"4","28","free","220","16","39","purple-201","purple","1247","sampling-task","104","648873","0.0-5.0-0.92-0.92","115","0p2xcc2d","high"
"4","29","free","220","16","48","purple-81","purple","900","sampling-task","105","650790","0.0-5.0-0.93-0.93","115","0p2xcc2d","high"
"4","30","free","220","16","-4","purple-179","purple","3357","sampling-task","106","654990","0.0-5.0-0.94-0.94","115","0p2xcc2d","high"
"4","31","free","220","16","7","purple-58","purple","2181","sampling-task","107","658086","0.0-5.0-0.95-0.95","115","0p2xcc2d","high"
"4","32","free","220","16","17","purple-210","purple","989","sampling-task","108","660142","0.0-5.0-0.96-0.96","115","0p2xcc2d","high"
"4","33","free","220","16","-23","purple-96","purple","789","sampling-task","109","662902","0.0-5.0-0.97-0.97","115","0p2xcc2d","high"
"4","34","free","220","16","-2","purple-39","purple","805","sampling-task","110","664622","0.0-5.0-0.98-0.98","115","0p2xcc2d","high"
"4","35","free","220","16","9","purple-158","purple","741","sampling-task","111","666262","0.0-5.0-0.99-0.99","115","0p2xcc2d","high"
"4","36","free","220","16","4","purple-107","purple","765","sampling-task","112","668078","0.0-5.0-0.100-0.100","115","0p2xcc2d","high"
"4","37","free","220","16","-12","purple-177","purple","669","sampling-task","113","669886","0.0-5.0-0.101-0.101","115","0p2xcc2d","high"
"4","38","free","220","16","54","purple-34","purple","1061","sampling-task","114","672022","0.0-5.0-0.102-0.102","115","0p2xcc2d","high"
"4","39","free","220","16","16","purple-165","purple","702","sampling-task","115","673654","0.0-5.0-0.103-0.103","115","0p2xcc2d","high"
"4","40","free","220","16","-29","purple-71","purple","709","sampling-task","116","675822","0.0-5.0-0.104-0.104","115","0p2xcc2d","high"
"4","41","free","220","16","28","purple-204","purple","710","sampling-task","117","677750","0.0-5.0-0.105-0.105","115","0p2xcc2d","high"
"4","42","free","220","16","28","purple-11","purple","574","sampling-task","118","680038","0.0-5.0-0.106-0.106","115","0p2xcc2d","high"
"4","43","free","220","16","26","purple-137","purple","1493","sampling-task","119","686854","0.0-5.0-0.107-0.107","115","0p2xcc2d","high"
"4","44","free","220","16","44","purple-206","purple","766","sampling-task","120","690278","0.0-5.0-0.108-0.108","115","0p2xcc2d","high"
"4","45","free","220","16","45","purple-163","purple","749","sampling-task","121","692078","0.0-5.0-0.109-0.109","115","0p2xcc2d","high"
"4","46","free","220","16","-6","purple-77","purple","613","sampling-task","122","694054","0.0-5.0-0.110-0.110","115","0p2xcc2d","high"
"4","47","free","220","16","27","purple-184","purple","1205","sampling-task","123","696718","0.0-5.0-0.111-0.111","115","0p2xcc2d","high"
"4","48","free","220","16","6","purple-105","purple","718","sampling-task","124","698446","0.0-5.0-0.112-0.112","115","0p2xcc2d","high"
"4","49","free","220","16","27","purple-173","purple","772","sampling-task","125","701078","0.0-5.0-0.113-0.113","115","0p2xcc2d","high"
"4","50","free","220","16","-32","purple-181","purple","718","sampling-task","126","702934","0.0-5.0-0.114-0.114","115","0p2xcc2d","high"
"4","51","free","220","16","61","purple-120","purple","669","sampling-task","127","704830","0.0-5.0-0.115-0.115","115","0p2xcc2d","high"
"5","1","fixed","10","39","59","yellow-89","yellow","2357","sampling-task","130","735252","0.0-5.0-0.116-0.116","115","0p2xcc2d","high"
"5","2","fixed","10","39","30","yellow-74","yellow","1566","sampling-task","131","738700","0.0-5.0-0.117-0.117","115","0p2xcc2d","high"
"5","3","fixed","10","39","-1","yellow-86","yellow","1197","sampling-task","132","741468","0.0-5.0-0.118-0.118","115","0p2xcc2d","high"
"5","4","fixed","10","39","66","yellow-42","yellow","1478","sampling-task","133","744132","0.0-5.0-0.119-0.119","115","0p2xcc2d","high"
"5","5","fixed","10","39","20","yellow-194","yellow","1037","sampling-task","134","746356","0.0-5.0-0.120-0.120","115","0p2xcc2d","high"
"5","6","fixed","10","39","33","yellow-162","yellow","1134","sampling-task","135","749228","0.0-5.0-0.121-0.121","115","0p2xcc2d","high"
"5","7","fixed","10","39","15","yellow-157","yellow","1110","sampling-task","136","751444","0.0-5.0-0.122-0.122","115","0p2xcc2d","high"
"5","8","fixed","10","39","48","yellow-106","yellow","1797","sampling-task","137","754492","0.0-5.0-0.123-0.123","115","0p2xcc2d","high"
"5","9","fixed","10","39","43","yellow-218","yellow","1942","sampling-task","138","757549","0.0-5.0-0.124-0.124","115","0p2xcc2d","high"
"5","10","fixed","10","39","43","yellow-220","yellow","1094","sampling-task","139","759869","0.0-5.0-0.125-0.125","115","0p2xcc2d","high"
"6","1","free","220","110","114","red-119","red","1947","sampling-task","142","782131","0.0-5.0-0.126-0.126","115","0p2xcc2d","high"
"6","2","free","220","110","88","red-8","red","1565","sampling-task","143","785307","0.0-5.0-0.127-0.127","115","0p2xcc2d","high"
"6","3","free","220","110","109","red-103","red","1205","sampling-task","144","788723","0.0-5.0-0.128-0.128","115","0p2xcc2d","high"
"6","4","free","220","110","131","red-3","red","932","sampling-task","145","791923","0.0-5.0-0.129-0.129","115","0p2xcc2d","high"
"6","5","free","220","110","102","red-91","red","526","sampling-task","146","793755","0.0-5.0-0.130-0.130","115","0p2xcc2d","high"
"6","6","free","220","110","102","red-178","red","533","sampling-task","147","795315","0.0-5.0-0.131-0.131","115","0p2xcc2d","high"
"6","7","free","220","110","106","red-167","red","685","sampling-task","148","796851","0.0-5.0-0.132-0.132","115","0p2xcc2d","high"
"6","8","free","220","110","138","red-172","red","548","sampling-task","149","798435","0.0-5.0-0.133-0.133","115","0p2xcc2d","high"
"6","9","free","220","110","82","red-16","red","446","sampling-task","150","800027","0.0-5.0-0.134-0.134","115","0p2xcc2d","high"
"6","10","free","220","110","94","red-217","red","469","sampling-task","151","801475","0.0-5.0-0.135-0.135","115","0p2xcc2d","high"
"6","11","free","220","110","125","red-150","red","741","sampling-task","152","803235","0.0-5.0-0.136-0.136","115","0p2xcc2d","high"
"6","12","free","220","110","114","red-35","red","533","sampling-task","153","804891","0.0-5.0-0.137-0.137","115","0p2xcc2d","high"
"6","13","free","220","110","129","red-22","red","612","sampling-task","154","806475","0.0-5.0-0.138-0.138","115","0p2xcc2d","high"
"6","14","free","220","110","79","red-212","red","605","sampling-task","155","808027","0.0-5.0-0.139-0.139","115","0p2xcc2d","high"
"6","15","free","220","110","139","red-152","red","750","sampling-task","156","809819","0.0-5.0-0.140-0.140","115","0p2xcc2d","high"
"6","16","free","220","110","119","red-129","red","677","sampling-task","157","811739","0.0-5.0-0.141-0.141","115","0p2xcc2d","high"
"6","17","free","220","110","86","red-114","red","589","sampling-task","158","813339","0.0-5.0-0.142-0.142","115","0p2xcc2d","high"
"6","18","free","220","110","114","red-20","red","613","sampling-task","159","815067","0.0-5.0-0.143-0.143","115","0p2xcc2d","high"
"6","19","free","220","110","124","red-212","red","661","sampling-task","160","816691","0.0-5.0-0.144-0.144","115","0p2xcc2d","high"
"6","20","free","220","110","126","red-121","red","1605","sampling-task","161","819211","0.0-5.0-0.145-0.145","115","0p2xcc2d","high"
"6","21","free","220","110","87","red-153","red","1341","sampling-task","162","821539","0.0-5.0-0.146-0.146","115","0p2xcc2d","high"
"6","22","free","220","110","103","red-84","red","965","sampling-task","163","823339","0.0-5.0-0.147-0.147","115","0p2xcc2d","high"
"6","23","free","220","110","98","red-16","red","620","sampling-task","164","824923","0.0-5.0-0.148-0.148","115","0p2xcc2d","high"
"6","24","free","220","110","102","red-66","red","974","sampling-task","165","827155","0.0-5.0-0.149-0.149","115","0p2xcc2d","high"
"6","25","free","220","110","104","red-211","red","557","sampling-task","166","828731","0.0-5.0-0.150-0.150","115","0p2xcc2d","high"
"6","26","free","220","110","120","red-41","red","741","sampling-task","167","830355","0.0-5.0-0.151-0.151","115","0p2xcc2d","high"
"6","27","free","220","110","92","red-121","red","758","sampling-task","168","832243","0.0-5.0-0.152-0.152","115","0p2xcc2d","high"
"6","28","free","220","110","134","red-90","red","637","sampling-task","169","833755","0.0-5.0-0.153-0.153","115","0p2xcc2d","high"
"6","29","free","220","110","101","red-30","red","629","sampling-task","170","835235","0.0-5.0-0.154-0.154","115","0p2xcc2d","high"
"6","30","free","220","110","115","red-180","red","1020","sampling-task","171","837307","0.0-5.0-0.155-0.155","115","0p2xcc2d","high"
"6","31","free","220","110","81","red-174","red","557","sampling-task","172","838961","0.0-5.0-0.156-0.156","115","0p2xcc2d","high"
"6","32","free","220","110","100","red-159","red","725","sampling-task","173","840529","0.0-5.0-0.157-0.157","115","0p2xcc2d","high"
"6","33","free","220","110","85","red-44","red","685","sampling-task","174","843345","0.0-5.0-0.158-0.158","115","0p2xcc2d","high"
"6","34","free","220","110","107","red-211","red","757","sampling-task","175","845138","0.0-5.0-0.159-0.159","115","0p2xcc2d","high"
"6","35","free","220","110","145","red-112","red","669","sampling-task","176","847081","0.0-5.0-0.160-0.160","115","0p2xcc2d","high"
"6","36","free","220","110","127","red-132","red","734","sampling-task","177","849745","0.0-5.0-0.161-0.161","115","0p2xcc2d","high"
"6","37","free","220","110","101","red-99","red","806","sampling-task","178","851377","0.0-5.0-0.162-0.162","115","0p2xcc2d","high"
"6","38","free","220","110","104","red-45","red","830","sampling-task","179","853065","0.0-5.0-0.163-0.163","115","0p2xcc2d","high"
"6","39","free","220","110","148","red-139","red","573","sampling-task","180","854433","0.0-5.0-0.164-0.164","115","0p2xcc2d","high"
"6","40","free","220","110","118","red-36","red","510","sampling-task","181","855825","0.0-5.0-0.165-0.165","115","0p2xcc2d","high"
"6","41","free","220","110","126","red-51","red","1125","sampling-task","182","858033","0.0-5.0-0.166-0.166","115","0p2xcc2d","high"
"6","42","free","220","110","104","red-68","red","902","sampling-task","183","859833","0.0-5.0-0.167-0.167","115","0p2xcc2d","high"
"6","43","free","220","110","126","red-90","red","557","sampling-task","184","861234","0.0-5.0-0.168-0.168","115","0p2xcc2d","high"
"6","44","free","220","110","100","red-197","red","621","sampling-task","185","862753","0.0-5.0-0.169-0.169","115","0p2xcc2d","high"
"6","45","free","220","110","124","red-141","red","629","sampling-task","186","864209","0.0-5.0-0.170-0.170","115","0p2xcc2d","high"
"6","46","free","220","110","95","red-158","red","702","sampling-task","187","866634","0.0-5.0-0.171-0.171","115","0p2xcc2d","high"
