"round_number","sample_number","sampling_type","nSamples","mean","feedback","stimulus","stimulus_colour","rt","trial_type","trial_index","time_elapsed","internal_node_id","participant","randomID","condition"
"1","1","fixed","5","96","113","blue-180","blue","3984","sampling-task","6","933206","0.0-5.0-0.0-0.0","58","eg20uc0t","low"
"1","2","fixed","5","96","124","blue-180","blue","2366","sampling-task","7","938005","0.0-5.0-0.1-0.1","58","eg20uc0t","low"
"1","3","fixed","5","96","95","blue-180","blue","1174","sampling-task","8","941510","0.0-5.0-0.2-0.2","58","eg20uc0t","low"
"1","4","fixed","5","96","90","blue-180","blue","862","sampling-task","9","943765","0.0-5.0-0.3-0.3","58","eg20uc0t","low"
"1","5","fixed","5","96","100","blue-180","blue","686","sampling-task","10","945870","0.0-5.0-0.4-0.4","58","eg20uc0t","low"
"2","1","free","220","36","43","green-86","green","4243","sampling-task","13","1023972","0.0-5.0-0.5-0.5","58","eg20uc0t","low"
"2","2","free","220","36","80","green-86","green","1414","sampling-task","14","1028676","0.0-5.0-0.6-0.6","58","eg20uc0t","low"
"2","3","free","220","36","59","green-86","green","758","sampling-task","15","1030580","0.0-5.0-0.7-0.7","58","eg20uc0t","low"
"2","4","free","220","36","11","green-86","green","623","sampling-task","16","1032308","0.0-5.0-0.8-0.8","58","eg20uc0t","low"
"2","5","free","220","36","41","green-86","green","582","sampling-task","17","1033892","0.0-5.0-0.9-0.9","58","eg20uc0t","low"
"2","6","free","220","36","34","green-86","green","526","sampling-task","18","1035964","0.0-5.0-0.10-0.10","58","eg20uc0t","low"
"2","7","free","220","36","39","green-86","green","543","sampling-task","19","1037501","0.0-5.0-0.11-0.11","58","eg20uc0t","low"
"2","8","free","220","36","20","green-86","green","500","sampling-task","20","1039068","0.0-5.0-0.12-0.12","58","eg20uc0t","low"
"2","9","free","220","36","18","green-86","green","479","sampling-task","21","1040612","0.0-5.0-0.13-0.13","58","eg20uc0t","low"
"2","10","free","220","36","0","green-86","green","463","sampling-task","22","1041980","0.0-5.0-0.14-0.14","58","eg20uc0t","low"
"2","11","free","220","36","33","green-86","green","446","sampling-task","23","1043492","0.0-5.0-0.15-0.15","58","eg20uc0t","low"
"2","12","free","220","36","32","green-86","green","470","sampling-task","24","1044956","0.0-5.0-0.16-0.16","58","eg20uc0t","low"
"2","13","free","220","36","46","green-86","green","421","sampling-task","25","1046259","0.0-5.0-0.17-0.17","58","eg20uc0t","low"
"2","14","free","220","36","15","green-86","green","413","sampling-task","26","1047723","0.0-5.0-0.18-0.18","58","eg20uc0t","low"
"2","15","free","220","36","13","green-86","green","398","sampling-task","27","1049043","0.0-5.0-0.19-0.19","58","eg20uc0t","low"
"2","16","free","220","36","19","green-86","green","404","sampling-task","28","1050579","0.0-5.0-0.20-0.20","58","eg20uc0t","low"
"2","17","free","220","36","44","green-86","green","470","sampling-task","29","1052467","0.0-5.0-0.21-0.21","58","eg20uc0t","low"
"2","18","free","220","36","51","green-86","green","534","sampling-task","30","1055067","0.0-5.0-0.22-0.22","58","eg20uc0t","low"
"2","19","free","220","36","20","green-86","green","702","sampling-task","31","1056675","0.0-5.0-0.23-0.23","58","eg20uc0t","low"
"2","20","free","220","36","8","green-86","green","558","sampling-task","32","1058139","0.0-5.0-0.24-0.24","58","eg20uc0t","low"
"2","21","free","220","36","42","green-86","green","606","sampling-task","33","1059867","0.0-5.0-0.25-0.25","58","eg20uc0t","low"
"2","22","free","220","36","4","green-86","green","478","sampling-task","34","1061330","0.0-5.0-0.26-0.26","58","eg20uc0t","low"
"2","23","free","220","36","56","green-86","green","422","sampling-task","35","1062811","0.0-5.0-0.27-0.27","58","eg20uc0t","low"
"2","24","free","220","36","45","green-86","green","502","sampling-task","36","1064371","0.0-5.0-0.28-0.28","58","eg20uc0t","low"
"2","25","free","220","36","31","green-86","green","478","sampling-task","37","1065915","0.0-5.0-0.29-0.29","58","eg20uc0t","low"
"2","26","free","220","36","37","green-86","green","486","sampling-task","38","1067563","0.0-5.0-0.30-0.30","58","eg20uc0t","low"
"2","27","free","220","36","36","green-86","green","534","sampling-task","39","1069571","0.0-5.0-0.31-0.31","58","eg20uc0t","low"
"2","28","free","220","36","57","green-86","green","590","sampling-task","40","1071299","0.0-5.0-0.32-0.32","58","eg20uc0t","low"
"2","29","free","220","36","34","green-86","green","494","sampling-task","41","1073138","0.0-5.0-0.33-0.33","58","eg20uc0t","low"
"2","30","free","220","36","101","green-86","green","486","sampling-task","42","1076955","0.0-5.0-0.34-0.34","58","eg20uc0t","low"
"2","31","free","220","36","17","green-86","green","797","sampling-task","43","1078771","0.0-5.0-0.35-0.35","58","eg20uc0t","low"
"2","32","free","220","36","9","green-86","green","486","sampling-task","44","1080291","0.0-5.0-0.36-0.36","58","eg20uc0t","low"
"2","33","free","220","36","18","green-86","green","493","sampling-task","45","1081683","0.0-5.0-0.37-0.37","58","eg20uc0t","low"
"2","34","free","220","36","27","green-86","green","421","sampling-task","46","1083227","0.0-5.0-0.38-0.38","58","eg20uc0t","low"
"2","35","free","220","36","15","green-86","green","398","sampling-task","47","1084667","0.0-5.0-0.39-0.39","58","eg20uc0t","low"
"2","36","free","220","36","71","green-86","green","396","sampling-task","48","1087483","0.0-5.0-0.40-0.40","58","eg20uc0t","low"
"2","37","free","220","36","34","green-86","green","526","sampling-task","49","1088939","0.0-5.0-0.41-0.41","58","eg20uc0t","low"
"2","38","free","220","36","28","green-86","green","374","sampling-task","50","1090314","0.0-5.0-0.42-0.42","58","eg20uc0t","low"
"2","39","free","220","36","35","green-86","green","484","sampling-task","51","1091843","0.0-5.0-0.43-0.43","58","eg20uc0t","low"
"2","40","free","220","36","33","green-86","green","366","sampling-task","52","1093123","0.0-5.0-0.44-0.44","58","eg20uc0t","low"
"2","41","free","220","36","69","green-86","green","398","sampling-task","53","1094787","0.0-5.0-0.45-0.45","58","eg20uc0t","low"
"2","42","free","220","36","30","green-86","green","533","sampling-task","54","1096931","0.0-5.0-0.46-0.46","58","eg20uc0t","low"
"2","43","free","220","36","31","green-86","green","462","sampling-task","55","1098323","0.0-5.0-0.47-0.47","58","eg20uc0t","low"
"2","44","free","220","36","42","green-86","green","446","sampling-task","56","1099827","0.0-5.0-0.48-0.48","58","eg20uc0t","low"
"2","45","free","220","36","47","green-86","green","414","sampling-task","57","1101283","0.0-5.0-0.49-0.49","58","eg20uc0t","low"
"2","46","free","220","36","48","green-86","green","454","sampling-task","58","1102851","0.0-5.0-0.50-0.50","58","eg20uc0t","low"
"2","47","free","220","36","25","green-86","green","374","sampling-task","59","1104099","0.0-5.0-0.51-0.51","58","eg20uc0t","low"
"2","48","free","220","36","29","green-86","green","421","sampling-task","60","1106481","0.0-5.0-0.52-0.52","58","eg20uc0t","low"
"2","49","free","220","36","53","green-86","green","413","sampling-task","61","1107817","0.0-5.0-0.53-0.53","58","eg20uc0t","low"
"2","50","free","220","36","87","green-86","green","341","sampling-task","62","1109057","0.0-5.0-0.54-0.54","58","eg20uc0t","low"
"2","51","free","220","36","43","green-86","green","406","sampling-task","63","1110353","0.0-5.0-0.55-0.55","58","eg20uc0t","low"
"2","52","free","220","36","7","green-86","green","470","sampling-task","64","1112041","0.0-5.0-0.56-0.56","58","eg20uc0t","low"
"2","53","free","220","36","31","green-86","green","429","sampling-task","65","1113457","0.0-5.0-0.57-0.57","58","eg20uc0t","low"
"2","54","free","220","36","30","green-86","green","430","sampling-task","66","1114913","0.0-5.0-0.58-0.58","58","eg20uc0t","low"
"2","55","free","220","36","38","green-86","green","1078","sampling-task","67","1117496","0.0-5.0-0.59-0.59","58","eg20uc0t","low"
"2","56","free","220","36","29","green-86","green","438","sampling-task","68","1118833","0.0-5.0-0.60-0.60","58","eg20uc0t","low"
"2","57","free","220","36","17","green-86","green","414","sampling-task","69","1120249","0.0-5.0-0.61-0.61","58","eg20uc0t","low"
"2","58","free","220","36","5","green-86","green","1174","sampling-task","70","1122825","0.0-5.0-0.62-0.62","58","eg20uc0t","low"
"3","1","fixed","20","19","27","orange-143","orange","2132","sampling-task","73","1157577","0.0-5.0-0.63-0.63","58","eg20uc0t","low"
"3","2","fixed","20","19","3","orange-143","orange","406","sampling-task","74","1159985","0.0-5.0-0.64-0.64","58","eg20uc0t","low"
"3","3","fixed","20","19","8","orange-143","orange","1037","sampling-task","75","1162233","0.0-5.0-0.65-0.65","58","eg20uc0t","low"
"3","4","fixed","20","19","20","orange-143","orange","526","sampling-task","76","1163609","0.0-5.0-0.66-0.66","58","eg20uc0t","low"
"3","5","fixed","20","19","9","orange-143","orange","502","sampling-task","77","1165065","0.0-5.0-0.67-0.67","58","eg20uc0t","low"
"3","6","fixed","20","19","4","orange-143","orange","485","sampling-task","78","1167199","0.0-5.0-0.68-0.68","58","eg20uc0t","low"
"3","7","fixed","20","19","52","orange-143","orange","478","sampling-task","79","1168951","0.0-5.0-0.69-0.69","58","eg20uc0t","low"
"3","8","fixed","20","19","47","orange-143","orange","454","sampling-task","80","1170303","0.0-5.0-0.70-0.70","58","eg20uc0t","low"
"3","9","fixed","20","19","2","orange-143","orange","438","sampling-task","81","1171976","0.0-5.0-0.71-0.71","58","eg20uc0t","low"
"3","10","fixed","20","19","21","orange-143","orange","470","sampling-task","82","1173975","0.0-5.0-0.72-0.72","58","eg20uc0t","low"
"3","11","fixed","20","19","36","orange-143","orange","438","sampling-task","83","1175511","0.0-5.0-0.73-0.73","58","eg20uc0t","low"
"3","12","fixed","20","19","15","orange-143","orange","670","sampling-task","84","1178608","0.0-5.0-0.74-0.74","58","eg20uc0t","low"
"3","13","fixed","20","19","10","orange-143","orange","822","sampling-task","85","1180375","0.0-5.0-0.75-0.75","58","eg20uc0t","low"
"3","14","fixed","20","19","18","orange-143","orange","430","sampling-task","86","1183488","0.0-5.0-0.76-0.76","58","eg20uc0t","low"
"3","15","fixed","20","19","-16","orange-143","orange","494","sampling-task","87","1185007","0.0-5.0-0.77-0.77","58","eg20uc0t","low"
"3","16","fixed","20","19","8","orange-143","orange","486","sampling-task","88","1186447","0.0-5.0-0.78-0.78","58","eg20uc0t","low"
"3","17","fixed","20","19","19","orange-143","orange","453","sampling-task","89","1187783","0.0-5.0-0.79-0.79","58","eg20uc0t","low"
"3","18","fixed","20","19","32","orange-143","orange","446","sampling-task","90","1189520","0.0-5.0-0.80-0.80","58","eg20uc0t","low"
"3","19","fixed","20","19","37","orange-143","orange","389","sampling-task","91","1190888","0.0-5.0-0.81-0.81","58","eg20uc0t","low"
"3","20","fixed","20","19","15","orange-143","orange","502","sampling-task","92","1192319","0.0-5.0-0.82-0.82","58","eg20uc0t","low"
"4","1","free","220","75","79","yellow-137","yellow","2484","sampling-task","95","1247479","0.0-5.0-0.83-0.83","58","eg20uc0t","low"
"4","2","free","220","75","64","yellow-137","yellow","374","sampling-task","96","1248791","0.0-5.0-0.84-0.84","58","eg20uc0t","low"
"4","3","free","220","75","36","yellow-137","yellow","310","sampling-task","97","1250327","0.0-5.0-0.85-0.85","58","eg20uc0t","low"
"4","4","free","220","75","54","yellow-137","yellow","373","sampling-task","98","1251927","0.0-5.0-0.86-0.86","58","eg20uc0t","low"
"4","5","free","220","75","66","yellow-137","yellow","446","sampling-task","99","1253415","0.0-5.0-0.87-0.87","58","eg20uc0t","low"
"4","6","free","220","75","93","yellow-137","yellow","366","sampling-task","100","1254687","0.0-5.0-0.88-0.88","58","eg20uc0t","low"
"4","7","free","220","75","93","yellow-137","yellow","342","sampling-task","101","1255904","0.0-5.0-0.89-0.89","58","eg20uc0t","low"
"4","8","free","220","75","78","yellow-137","yellow","372","sampling-task","102","1257303","0.0-5.0-0.90-0.90","58","eg20uc0t","low"
"4","9","free","220","75","78","yellow-137","yellow","310","sampling-task","103","1258503","0.0-5.0-0.91-0.91","58","eg20uc0t","low"
"4","10","free","220","75","110","yellow-137","yellow","357","sampling-task","104","1259766","0.0-5.0-0.92-0.92","58","eg20uc0t","low"
"4","11","free","220","75","103","yellow-137","yellow","366","sampling-task","105","1261047","0.0-5.0-0.93-0.93","58","eg20uc0t","low"
"4","12","free","220","75","60","yellow-137","yellow","374","sampling-task","106","1262366","0.0-5.0-0.94-0.94","58","eg20uc0t","low"
"4","13","free","220","75","75","yellow-137","yellow","390","sampling-task","107","1263663","0.0-5.0-0.95-0.95","58","eg20uc0t","low"
"4","14","free","220","75","79","yellow-137","yellow","397","sampling-task","108","1265135","0.0-5.0-0.96-0.96","58","eg20uc0t","low"
"4","15","free","220","75","50","yellow-137","yellow","838","sampling-task","109","1267175","0.0-5.0-0.97-0.97","58","eg20uc0t","low"
"4","16","free","220","75","59","yellow-137","yellow","534","sampling-task","110","1269223","0.0-5.0-0.98-0.98","58","eg20uc0t","low"
"4","17","free","220","75","55","yellow-137","yellow","445","sampling-task","111","1270671","0.0-5.0-0.99-0.99","58","eg20uc0t","low"
"4","18","free","220","75","91","yellow-137","yellow","310","sampling-task","112","1271942","0.0-5.0-0.100-0.100","58","eg20uc0t","low"
"4","19","free","220","75","81","yellow-137","yellow","318","sampling-task","113","1273207","0.0-5.0-0.101-0.101","58","eg20uc0t","low"
"4","20","free","220","75","79","yellow-137","yellow","333","sampling-task","114","1274719","0.0-5.0-0.102-0.102","58","eg20uc0t","low"
"4","21","free","220","75","65","yellow-137","yellow","349","sampling-task","115","1276071","0.0-5.0-0.103-0.103","58","eg20uc0t","low"
"4","22","free","220","75","96","yellow-137","yellow","341","sampling-task","116","1277631","0.0-5.0-0.104-0.104","58","eg20uc0t","low"
"4","23","free","220","75","76","yellow-137","yellow","405","sampling-task","117","1278919","0.0-5.0-0.105-0.105","58","eg20uc0t","low"
"4","24","free","220","75","86","yellow-137","yellow","374","sampling-task","118","1280399","0.0-5.0-0.106-0.106","58","eg20uc0t","low"
"4","25","free","220","75","54","yellow-137","yellow","357","sampling-task","119","1282479","0.0-5.0-0.107-0.107","58","eg20uc0t","low"
"4","26","free","220","75","46","yellow-137","yellow","381","sampling-task","120","1283831","0.0-5.0-0.108-0.108","58","eg20uc0t","low"
"4","27","free","220","75","103","yellow-137","yellow","325","sampling-task","121","1285031","0.0-5.0-0.109-0.109","58","eg20uc0t","low"
"4","28","free","220","75","89","yellow-137","yellow","389","sampling-task","122","1286517","0.0-5.0-0.110-0.110","58","eg20uc0t","low"
"4","29","free","220","75","35","yellow-137","yellow","357","sampling-task","123","1290621","0.0-5.0-0.111-0.111","58","eg20uc0t","low"
"4","30","free","220","75","42","yellow-137","yellow","477","sampling-task","124","1292197","0.0-5.0-0.112-0.112","58","eg20uc0t","low"
"4","31","free","220","75","67","yellow-137","yellow","357","sampling-task","125","1293812","0.0-5.0-0.113-0.113","58","eg20uc0t","low"
"4","32","free","220","75","61","yellow-137","yellow","382","sampling-task","126","1295485","0.0-5.0-0.114-0.114","58","eg20uc0t","low"
"4","33","free","220","75","67","yellow-137","yellow","454","sampling-task","127","1296997","0.0-5.0-0.115-0.115","58","eg20uc0t","low"
"4","34","free","220","75","55","yellow-137","yellow","453","sampling-task","128","1301540","0.0-5.0-0.116-0.116","58","eg20uc0t","low"
"4","35","free","220","75","82","yellow-137","yellow","558","sampling-task","129","1303164","0.0-5.0-0.117-0.117","58","eg20uc0t","low"
"4","36","free","220","75","79","yellow-137","yellow","358","sampling-task","130","1304397","0.0-5.0-0.118-0.118","58","eg20uc0t","low"
"4","37","free","220","75","71","yellow-137","yellow","358","sampling-task","131","1305621","0.0-5.0-0.119-0.119","58","eg20uc0t","low"
"4","38","free","220","75","90","yellow-137","yellow","606","sampling-task","132","1307380","0.0-5.0-0.120-0.120","58","eg20uc0t","low"
"4","39","free","220","75","79","yellow-137","yellow","397","sampling-task","133","1308661","0.0-5.0-0.121-0.121","58","eg20uc0t","low"
"4","40","free","220","75","79","yellow-137","yellow","358","sampling-task","134","1309885","0.0-5.0-0.122-0.122","58","eg20uc0t","low"
"4","41","free","220","75","64","yellow-137","yellow","1158","sampling-task","135","1312093","0.0-5.0-0.123-0.123","58","eg20uc0t","low"
"5","1","fixed","10","116","120","red-32","red","4893","sampling-task","138","1333805","0.0-5.0-0.124-0.124","58","eg20uc0t","low"
"5","2","fixed","10","116","109","red-32","red","1181","sampling-task","139","1336068","0.0-5.0-0.125-0.125","58","eg20uc0t","low"
"5","3","fixed","10","116","126","red-32","red","854","sampling-task","140","1338109","0.0-5.0-0.126-0.126","58","eg20uc0t","low"
"5","4","fixed","10","116","149","red-32","red","510","sampling-task","141","1339493","0.0-5.0-0.127-0.127","58","eg20uc0t","low"
"5","5","fixed","10","116","117","red-32","red","421","sampling-task","142","1341316","0.0-5.0-0.128-0.128","58","eg20uc0t","low"
"5","6","fixed","10","116","139","red-32","red","502","sampling-task","143","1343677","0.0-5.0-0.129-0.129","58","eg20uc0t","low"
"5","7","fixed","10","116","172","red-32","red","605","sampling-task","144","1345445","0.0-5.0-0.130-0.130","58","eg20uc0t","low"
"5","8","fixed","10","116","113","red-32","red","494","sampling-task","145","1348036","0.0-5.0-0.131-0.131","58","eg20uc0t","low"
"5","9","fixed","10","116","126","red-32","red","565","sampling-task","146","1349772","0.0-5.0-0.132-0.132","58","eg20uc0t","low"
"5","10","fixed","10","116","117","red-32","red","1293","sampling-task","147","1352228","0.0-5.0-0.133-0.133","58","eg20uc0t","low"
"6","1","free","220","54","46","purple-1","purple","972","sampling-task","150","1388524","0.0-5.0-0.134-0.134","58","eg20uc0t","low"
"6","2","free","220","54","19","purple-1","purple","524","sampling-task","151","1391243","0.0-5.0-0.135-0.135","58","eg20uc0t","low"
"6","3","free","220","54","37","purple-1","purple","414","sampling-task","152","1392724","0.0-5.0-0.136-0.136","58","eg20uc0t","low"
"6","4","free","220","54","57","purple-1","purple","386","sampling-task","153","1395195","0.0-5.0-0.137-0.137","58","eg20uc0t","low"
"6","5","free","220","54","50","purple-1","purple","382","sampling-task","154","1396428","0.0-5.0-0.138-0.138","58","eg20uc0t","low"
"6","6","free","220","54","48","purple-1","purple","373","sampling-task","155","1397900","0.0-5.0-0.139-0.139","58","eg20uc0t","low"
"6","7","free","220","54","57","purple-1","purple","357","sampling-task","156","1399092","0.0-5.0-0.140-0.140","58","eg20uc0t","low"
"6","8","free","220","54","51","purple-1","purple","517","sampling-task","157","1400564","0.0-5.0-0.141-0.141","58","eg20uc0t","low"
"6","9","free","220","54","33","purple-1","purple","325","sampling-task","158","1401764","0.0-5.0-0.142-0.142","58","eg20uc0t","low"
"6","10","free","220","54","59","purple-1","purple","365","sampling-task","159","1403060","0.0-5.0-0.143-0.143","58","eg20uc0t","low"
"6","11","free","220","54","56","purple-1","purple","309","sampling-task","160","1404260","0.0-5.0-0.144-0.144","58","eg20uc0t","low"
"6","12","free","220","54","79","purple-1","purple","317","sampling-task","161","1405436","0.0-5.0-0.145-0.145","58","eg20uc0t","low"
"6","13","free","220","54","56","purple-1","purple","349","sampling-task","162","1406747","0.0-5.0-0.146-0.146","58","eg20uc0t","low"
"6","14","free","220","54","48","purple-1","purple","349","sampling-task","163","1408811","0.0-5.0-0.147-0.147","58","eg20uc0t","low"
"6","15","free","220","54","35","purple-1","purple","349","sampling-task","164","1410266","0.0-5.0-0.148-0.148","58","eg20uc0t","low"
"6","16","free","220","54","30","purple-1","purple","374","sampling-task","165","1411651","0.0-5.0-0.149-0.149","58","eg20uc0t","low"
"6","17","free","220","54","25","purple-1","purple","334","sampling-task","166","1413163","0.0-5.0-0.150-0.150","58","eg20uc0t","low"
"6","18","free","220","54","79","purple-1","purple","349","sampling-task","167","1414427","0.0-5.0-0.151-0.151","58","eg20uc0t","low"
"6","19","free","220","54","64","purple-1","purple","357","sampling-task","168","1415939","0.0-5.0-0.152-0.152","58","eg20uc0t","low"
"6","20","free","220","54","109","purple-1","purple","389","sampling-task","169","1417419","0.0-5.0-0.153-0.153","58","eg20uc0t","low"
"6","21","free","220","54","22","purple-1","purple","374","sampling-task","170","1418979","0.0-5.0-0.154-0.154","58","eg20uc0t","low"
"6","22","free","220","54","65","purple-1","purple","365","sampling-task","171","1420483","0.0-5.0-0.155-0.155","58","eg20uc0t","low"
"6","23","free","220","54","89","purple-1","purple","1501","sampling-task","172","1423379","0.0-5.0-0.156-0.156","58","eg20uc0t","low"
"6","24","free","220","54","30","purple-1","purple","421","sampling-task","173","1424931","0.0-5.0-0.157-0.157","58","eg20uc0t","low"
"6","25","free","220","54","56","purple-1","purple","381","sampling-task","174","1427723","0.0-5.0-0.158-0.158","58","eg20uc0t","low"
"6","26","free","220","54","73","purple-1","purple","437","sampling-task","175","1429099","0.0-5.0-0.159-0.159","58","eg20uc0t","low"
"6","27","free","220","54","70","purple-1","purple","445","sampling-task","176","1433899","0.0-5.0-0.160-0.160","58","eg20uc0t","low"
"6","28","free","220","54","90","purple-1","purple","490","sampling-task","177","1435258","0.0-5.0-0.161-0.161","58","eg20uc0t","low"
"6","29","free","220","54","66","purple-1","purple","325","sampling-task","178","1436435","0.0-5.0-0.162-0.162","58","eg20uc0t","low"
"6","30","free","220","54","67","purple-1","purple","309","sampling-task","179","1438643","0.0-5.0-0.163-0.163","58","eg20uc0t","low"
"6","31","free","220","54","51","purple-1","purple","437","sampling-task","180","1440139","0.0-5.0-0.164-0.164","58","eg20uc0t","low"
"6","32","free","220","54","84","purple-1","purple","349","sampling-task","181","1442050","0.0-5.0-0.165-0.165","58","eg20uc0t","low"
"6","33","free","220","54","60","purple-1","purple","581","sampling-task","182","1443563","0.0-5.0-0.166-0.166","58","eg20uc0t","low"
"6","34","free","220","54","65","purple-1","purple","381","sampling-task","183","1444971","0.0-5.0-0.167-0.167","58","eg20uc0t","low"
"6","35","free","220","54","56","purple-1","purple","357","sampling-task","184","1446218","0.0-5.0-0.168-0.168","58","eg20uc0t","low"
"6","36","free","220","54","60","purple-1","purple","365","sampling-task","185","1447467","0.0-5.0-0.169-0.169","58","eg20uc0t","low"
"6","37","free","220","54","69","purple-1","purple","357","sampling-task","186","1448675","0.0-5.0-0.170-0.170","58","eg20uc0t","low"
"6","38","free","220","54","55","purple-1","purple","349","sampling-task","187","1449963","0.0-5.0-0.171-0.171","58","eg20uc0t","low"
"6","39","free","220","54","95","purple-1","purple","357","sampling-task","188","1451243","0.0-5.0-0.172-0.172","58","eg20uc0t","low"
"6","40","free","220","54","36","purple-1","purple","373","sampling-task","189","1452691","0.0-5.0-0.173-0.173","58","eg20uc0t","low"
"6","41","free","220","54","49","purple-1","purple","389","sampling-task","190","1453947","0.0-5.0-0.174-0.174","58","eg20uc0t","low"
"6","42","free","220","54","67","purple-1","purple","557","sampling-task","191","1455403","0.0-5.0-0.175-0.175","58","eg20uc0t","low"
