"round_number","sample_number","sampling_type","nSamples","mean","feedback","stimulus","stimulus_colour","rt","trial_type","trial_index","time_elapsed","internal_node_id","participant","randomID","condition"
"1","1","fixed","5","58","39","purple-133","purple","9376","sampling-task","15","555937","0.0-5.0-0.0-0.0","87","rl53u9wr","high"
"1","2","fixed","5","58","34","purple-22","purple","2718","sampling-task","16","564945","0.0-5.0-0.1-0.1","87","rl53u9wr","high"
"1","3","fixed","5","58","53","purple-144","purple","646","sampling-task","17","569385","0.0-5.0-0.2-0.2","87","rl53u9wr","high"
"1","4","fixed","5","58","87","purple-192","purple","606","sampling-task","18","572073","0.0-5.0-0.3-0.3","87","rl53u9wr","high"
"1","5","fixed","5","58","9","purple-214","purple","414","sampling-task","19","590353","0.0-5.0-0.4-0.4","87","rl53u9wr","high"
"2","1","free","220","90","67","orange-157","orange","3836","sampling-task","22","646585","0.0-5.0-0.5-0.5","87","rl53u9wr","high"
"2","2","free","220","90","92","orange-178","orange","558","sampling-task","23","649161","0.0-5.0-0.6-0.6","87","rl53u9wr","high"
"2","3","free","220","90","84","orange-87","orange","391","sampling-task","24","650713","0.0-5.0-0.7-0.7","87","rl53u9wr","high"
"2","4","free","220","90","107","orange-14","orange","342","sampling-task","25","652817","0.0-5.0-0.8-0.8","87","rl53u9wr","high"
"2","5","free","220","90","147","orange-126","orange","294","sampling-task","26","656145","0.0-5.0-0.9-0.9","87","rl53u9wr","high"
"2","6","free","220","90","112","orange-194","orange","295","sampling-task","27","657522","0.0-5.0-0.10-0.10","87","rl53u9wr","high"
"2","7","free","220","90","89","orange-71","orange","326","sampling-task","28","659001","0.0-5.0-0.11-0.11","87","rl53u9wr","high"
"2","8","free","220","90","93","orange-73","orange","367","sampling-task","29","660738","0.0-5.0-0.12-0.12","87","rl53u9wr","high"
"2","9","free","220","90","86","orange-200","orange","415","sampling-task","30","662154","0.0-5.0-0.13-0.13","87","rl53u9wr","high"
"2","10","free","220","90","95","orange-116","orange","367","sampling-task","31","663435","0.0-5.0-0.14-0.14","87","rl53u9wr","high"
"2","11","free","220","90","96","orange-62","orange","334","sampling-task","32","664963","0.0-5.0-0.15-0.15","87","rl53u9wr","high"
"2","12","free","220","90","101","orange-79","orange","310","sampling-task","33","666739","0.0-5.0-0.16-0.16","87","rl53u9wr","high"
"2","13","free","220","90","64","orange-150","orange","342","sampling-task","34","668075","0.0-5.0-0.17-0.17","87","rl53u9wr","high"
"2","14","free","220","90","78","orange-115","orange","293","sampling-task","35","669211","0.0-5.0-0.18-0.18","87","rl53u9wr","high"
"2","15","free","220","90","61","orange-127","orange","294","sampling-task","36","670355","0.0-5.0-0.19-0.19","87","rl53u9wr","high"
"2","16","free","220","90","77","orange-169","orange","318","sampling-task","37","671499","0.0-5.0-0.20-0.20","87","rl53u9wr","high"
"2","17","free","220","90","82","orange-75","orange","374","sampling-task","38","673275","0.0-5.0-0.21-0.21","87","rl53u9wr","high"
"2","18","free","220","90","96","orange-52","orange","350","sampling-task","39","674427","0.0-5.0-0.22-0.22","87","rl53u9wr","high"
"2","19","free","220","90","80","orange-8","orange","318","sampling-task","40","675563","0.0-5.0-0.23-0.23","87","rl53u9wr","high"
"2","20","free","220","90","89","orange-168","orange","310","sampling-task","41","676731","0.0-5.0-0.24-0.24","87","rl53u9wr","high"
"2","21","free","220","90","101","orange-97","orange","494","sampling-task","42","678922","0.0-5.0-0.25-0.25","87","rl53u9wr","high"
"2","22","free","220","90","90","orange-78","orange","327","sampling-task","43","680123","0.0-5.0-0.26-0.26","87","rl53u9wr","high"
"2","23","free","220","90","94","orange-169","orange","350","sampling-task","44","682858","0.0-5.0-0.27-0.27","87","rl53u9wr","high"
"2","24","free","220","90","78","orange-107","orange","295","sampling-task","45","685003","0.0-5.0-0.28-0.28","87","rl53u9wr","high"
"2","25","free","220","90","106","orange-2","orange","270","sampling-task","46","686115","0.0-5.0-0.29-0.29","87","rl53u9wr","high"
"2","26","free","220","90","104","orange-87","orange","278","sampling-task","47","687227","0.0-5.0-0.30-0.30","87","rl53u9wr","high"
"2","27","free","220","90","73","orange-43","orange","278","sampling-task","48","688315","0.0-5.0-0.31-0.31","87","rl53u9wr","high"
"2","28","free","220","90","66","orange-43","orange","278","sampling-task","49","689378","0.0-5.0-0.32-0.32","87","rl53u9wr","high"
"2","29","free","220","90","126","orange-124","orange","277","sampling-task","50","694162","0.0-5.0-0.33-0.33","87","rl53u9wr","high"
"2","30","free","220","90","83","orange-150","orange","238","sampling-task","51","695219","0.0-5.0-0.34-0.34","87","rl53u9wr","high"
"2","31","free","220","90","68","orange-58","orange","302","sampling-task","52","696339","0.0-5.0-0.35-0.35","87","rl53u9wr","high"
"2","32","free","220","90","87","orange-72","orange","310","sampling-task","53","697435","0.0-5.0-0.36-0.36","87","rl53u9wr","high"
"2","33","free","220","90","49","orange-130","orange","254","sampling-task","54","698466","0.0-5.0-0.37-0.37","87","rl53u9wr","high"
"2","34","free","220","90","106","orange-26","orange","286","sampling-task","55","699570","0.0-5.0-0.38-0.38","87","rl53u9wr","high"
"2","35","free","220","90","50","orange-193","orange","334","sampling-task","56","700731","0.0-5.0-0.39-0.39","87","rl53u9wr","high"
"2","36","free","220","90","78","orange-46","orange","334","sampling-task","57","701867","0.0-5.0-0.40-0.40","87","rl53u9wr","high"
"2","37","free","220","90","119","orange-132","orange","334","sampling-task","58","703450","0.0-5.0-0.41-0.41","87","rl53u9wr","high"
"2","38","free","220","90","99","orange-162","orange","390","sampling-task","59","704883","0.0-5.0-0.42-0.42","87","rl53u9wr","high"
"2","39","free","220","90","80","orange-111","orange","326","sampling-task","60","706027","0.0-5.0-0.43-0.43","87","rl53u9wr","high"
"2","40","free","220","90","106","orange-164","orange","318","sampling-task","61","707338","0.0-5.0-0.44-0.44","87","rl53u9wr","high"
"2","41","free","220","90","96","orange-140","orange","390","sampling-task","62","708538","0.0-5.0-0.45-0.45","87","rl53u9wr","high"
"2","42","free","220","90","112","orange-55","orange","286","sampling-task","63","709659","0.0-5.0-0.46-0.46","87","rl53u9wr","high"
"2","43","free","220","90","116","orange-25","orange","262","sampling-task","64","711322","0.0-5.0-0.47-0.47","87","rl53u9wr","high"
"2","44","free","220","90","94","orange-19","orange","295","sampling-task","65","712483","0.0-5.0-0.48-0.48","87","rl53u9wr","high"
"2","45","free","220","90","76","orange-26","orange","310","sampling-task","66","713803","0.0-5.0-0.49-0.49","87","rl53u9wr","high"
"2","46","free","220","90","95","orange-154","orange","294","sampling-task","67","714955","0.0-5.0-0.50-0.50","87","rl53u9wr","high"
"2","47","free","220","90","107","orange-187","orange","286","sampling-task","68","716051","0.0-5.0-0.51-0.51","87","rl53u9wr","high"
"2","48","free","220","90","84","orange-108","orange","270","sampling-task","69","717171","0.0-5.0-0.52-0.52","87","rl53u9wr","high"
"2","49","free","220","90","65","orange-21","orange","302","sampling-task","70","720027","0.0-5.0-0.53-0.53","87","rl53u9wr","high"
"2","50","free","220","90","116","orange-70","orange","389","sampling-task","71","722675","0.0-5.0-0.54-0.54","87","rl53u9wr","high"
"2","51","free","220","90","114","orange-61","orange","254","sampling-task","72","723739","0.0-5.0-0.55-0.55","87","rl53u9wr","high"
"2","52","free","220","90","90","orange-195","orange","262","sampling-task","73","725187","0.0-5.0-0.56-0.56","87","rl53u9wr","high"
"2","53","free","220","90","98","orange-119","orange","286","sampling-task","74","726307","0.0-5.0-0.57-0.57","87","rl53u9wr","high"
"2","54","free","220","90","52","orange-161","orange","326","sampling-task","75","727915","0.0-5.0-0.58-0.58","87","rl53u9wr","high"
"2","55","free","220","90","53","orange-121","orange","366","sampling-task","76","729099","0.0-5.0-0.59-0.59","87","rl53u9wr","high"
"2","56","free","220","90","84","orange-186","orange","318","sampling-task","77","730563","0.0-5.0-0.60-0.60","87","rl53u9wr","high"
"2","57","free","220","90","95","orange-92","orange","342","sampling-task","78","731787","0.0-5.0-0.61-0.61","87","rl53u9wr","high"
"2","58","free","220","90","103","orange-120","orange","358","sampling-task","79","733251","0.0-5.0-0.62-0.62","87","rl53u9wr","high"
"2","59","free","220","90","126","orange-182","orange","366","sampling-task","80","735107","0.0-5.0-0.63-0.63","87","rl53u9wr","high"
"3","1","fixed","10","32","24","green-65","green","3964","sampling-task","83","765867","0.0-5.0-0.64-0.64","87","rl53u9wr","high"
"3","2","fixed","10","32","26","green-195","green","478","sampling-task","84","767370","0.0-5.0-0.65-0.65","87","rl53u9wr","high"
"3","3","fixed","10","32","12","green-192","green","334","sampling-task","85","768682","0.0-5.0-0.66-0.66","87","rl53u9wr","high"
"3","4","fixed","10","32","30","green-127","green","398","sampling-task","86","770266","0.0-5.0-0.67-0.67","87","rl53u9wr","high"
"3","5","fixed","10","32","65","green-136","green","454","sampling-task","87","772914","0.0-5.0-0.68-0.68","87","rl53u9wr","high"
"3","6","fixed","10","32","79","green-157","green","326","sampling-task","88","774123","0.0-5.0-0.69-0.69","87","rl53u9wr","high"
"3","7","fixed","10","32","33","green-15","green","734","sampling-task","89","775731","0.0-5.0-0.70-0.70","87","rl53u9wr","high"
"3","8","fixed","10","32","45","green-136","green","469","sampling-task","90","777043","0.0-5.0-0.71-0.71","87","rl53u9wr","high"
"3","9","fixed","10","32","40","green-148","green","622","sampling-task","91","778531","0.0-5.0-0.72-0.72","87","rl53u9wr","high"
"3","10","fixed","10","32","33","green-21","green","622","sampling-task","92","780452","0.0-5.0-0.73-0.73","87","rl53u9wr","high"
"4","1","free","220","110","142","blue-107","blue","1588","sampling-task","95","820084","0.0-5.0-0.74-0.74","87","rl53u9wr","high"
"4","2","free","220","110","110","blue-27","blue","318","sampling-task","96","821284","0.0-5.0-0.75-0.75","87","rl53u9wr","high"
"4","3","free","220","110","89","blue-98","blue","318","sampling-task","97","822444","0.0-5.0-0.76-0.76","87","rl53u9wr","high"
"4","4","free","220","110","100","blue-205","blue","334","sampling-task","98","823868","0.0-5.0-0.77-0.77","87","rl53u9wr","high"
"4","5","free","220","110","125","blue-209","blue","294","sampling-task","99","825268","0.0-5.0-0.78-0.78","87","rl53u9wr","high"
"4","6","free","220","110","89","blue-198","blue","390","sampling-task","100","827012","0.0-5.0-0.79-0.79","87","rl53u9wr","high"
"4","7","free","220","110","92","blue-21","blue","381","sampling-task","101","828204","0.0-5.0-0.80-0.80","87","rl53u9wr","high"
"4","8","free","220","110","123","blue-83","blue","262","sampling-task","102","829284","0.0-5.0-0.81-0.81","87","rl53u9wr","high"
"4","9","free","220","110","112","blue-60","blue","293","sampling-task","103","830412","0.0-5.0-0.82-0.82","87","rl53u9wr","high"
"4","10","free","220","110","87","blue-40","blue","279","sampling-task","104","831644","0.0-5.0-0.83-0.83","87","rl53u9wr","high"
"4","11","free","220","110","158","blue-184","blue","380","sampling-task","105","833523","0.0-5.0-0.84-0.84","87","rl53u9wr","high"
"5","1","fixed","20","13","26","yellow-178","yellow","1597","sampling-task","108","864189","0.0-5.0-0.85-0.85","87","rl53u9wr","high"
"5","2","fixed","20","13","6","yellow-68","yellow","510","sampling-task","109","865788","0.0-5.0-0.86-0.86","87","rl53u9wr","high"
"5","3","fixed","20","13","-5","yellow-13","yellow","390","sampling-task","110","867157","0.0-5.0-0.87-0.87","87","rl53u9wr","high"
"5","4","fixed","20","13","2","yellow-129","yellow","374","sampling-task","111","868364","0.0-5.0-0.88-0.88","87","rl53u9wr","high"
"5","5","fixed","20","13","26","yellow-36","yellow","374","sampling-task","112","869548","0.0-5.0-0.89-0.89","87","rl53u9wr","high"
"5","6","fixed","20","13","-21","yellow-180","yellow","438","sampling-task","113","870804","0.0-5.0-0.90-0.90","87","rl53u9wr","high"
"5","7","fixed","20","13","20","yellow-14","yellow","382","sampling-task","114","871988","0.0-5.0-0.91-0.91","87","rl53u9wr","high"
"5","8","fixed","20","13","3","yellow-60","yellow","430","sampling-task","115","873357","0.0-5.0-0.92-0.92","87","rl53u9wr","high"
"5","9","fixed","20","13","7","yellow-120","yellow","406","sampling-task","116","874781","0.0-5.0-0.93-0.93","87","rl53u9wr","high"
"5","10","fixed","20","13","4","yellow-104","yellow","430","sampling-task","117","876276","0.0-5.0-0.94-0.94","87","rl53u9wr","high"
"5","11","fixed","20","13","-1","yellow-155","yellow","398","sampling-task","118","877669","0.0-5.0-0.95-0.95","87","rl53u9wr","high"
"5","12","fixed","20","13","45","yellow-166","yellow","526","sampling-task","119","879396","0.0-5.0-0.96-0.96","87","rl53u9wr","high"
"5","13","fixed","20","13","-4","yellow-187","yellow","438","sampling-task","120","880684","0.0-5.0-0.97-0.97","87","rl53u9wr","high"
"5","14","fixed","20","13","39","yellow-44","yellow","526","sampling-task","121","882668","0.0-5.0-0.98-0.98","87","rl53u9wr","high"
"5","15","fixed","20","13","-10","yellow-182","yellow","614","sampling-task","122","884148","0.0-5.0-0.99-0.99","87","rl53u9wr","high"
"5","16","fixed","20","13","30","yellow-113","yellow","430","sampling-task","123","885620","0.0-5.0-0.100-0.100","87","rl53u9wr","high"
"5","17","fixed","20","13","-7","yellow-160","yellow","382","sampling-task","124","886804","0.0-5.0-0.101-0.101","87","rl53u9wr","high"
"5","18","fixed","20","13","22","yellow-30","yellow","374","sampling-task","125","888317","0.0-5.0-0.102-0.102","87","rl53u9wr","high"
"5","19","fixed","20","13","16","yellow-128","yellow","413","sampling-task","126","889581","0.0-5.0-0.103-0.103","87","rl53u9wr","high"
"5","20","fixed","20","13","-3","yellow-41","yellow","462","sampling-task","127","891076","0.0-5.0-0.104-0.104","87","rl53u9wr","high"
"6","1","free","220","78","45","red-146","red","1244","sampling-task","130","908885","0.0-5.0-0.105-0.105","87","rl53u9wr","high"
"6","2","free","220","78","84","red-133","red","1165","sampling-task","131","913781","0.0-5.0-0.106-0.106","87","rl53u9wr","high"
"6","3","free","220","78","83","red-211","red","319","sampling-task","132","914965","0.0-5.0-0.107-0.107","87","rl53u9wr","high"
"6","4","free","220","78","105","red-137","red","303","sampling-task","133","916341","0.0-5.0-0.108-0.108","87","rl53u9wr","high"
"6","5","free","220","78","88","red-167","red","309","sampling-task","134","917653","0.0-5.0-0.109-0.109","87","rl53u9wr","high"
"6","6","free","220","78","101","red-13","red","358","sampling-task","135","918989","0.0-5.0-0.110-0.110","87","rl53u9wr","high"
"6","7","free","220","78","54","red-112","red","286","sampling-task","136","920077","0.0-5.0-0.111-0.111","87","rl53u9wr","high"
"6","8","free","220","78","81","red-32","red","277","sampling-task","137","921157","0.0-5.0-0.112-0.112","87","rl53u9wr","high"
"6","9","free","220","78","84","red-151","red","286","sampling-task","138","922245","0.0-5.0-0.113-0.113","87","rl53u9wr","high"
"6","10","free","220","78","89","red-165","red","317","sampling-task","139","923381","0.0-5.0-0.114-0.114","87","rl53u9wr","high"
"6","11","free","220","78","34","red-66","red","318","sampling-task","140","924541","0.0-5.0-0.115-0.115","87","rl53u9wr","high"
"6","12","free","220","78","95","red-101","red","294","sampling-task","141","925957","0.0-5.0-0.116-0.116","87","rl53u9wr","high"
"6","13","free","220","78","67","red-87","red","293","sampling-task","142","927189","0.0-5.0-0.117-0.117","87","rl53u9wr","high"
"6","14","free","220","78","97","red-13","red","390","sampling-task","143","928437","0.0-5.0-0.118-0.118","87","rl53u9wr","high"
"6","15","free","220","78","92","red-155","red","311","sampling-task","144","930117","0.0-5.0-0.119-0.119","87","rl53u9wr","high"
"6","16","free","220","78","68","red-150","red","493","sampling-task","145","931429","0.0-5.0-0.120-0.120","87","rl53u9wr","high"
"6","17","free","220","78","53","red-43","red","270","sampling-task","146","934285","0.0-5.0-0.121-0.121","87","rl53u9wr","high"
"6","18","free","220","78","41","red-40","red","278","sampling-task","147","935389","0.0-5.0-0.122-0.122","87","rl53u9wr","high"
"6","19","free","220","78","80","red-201","red","454","sampling-task","148","936661","0.0-5.0-0.123-0.123","87","rl53u9wr","high"
"6","20","free","220","78","76","red-135","red","286","sampling-task","149","937725","0.0-5.0-0.124-0.124","87","rl53u9wr","high"
"6","21","free","220","78","78","red-132","red","294","sampling-task","150","939125","0.0-5.0-0.125-0.125","87","rl53u9wr","high"
"6","22","free","220","78","49","red-116","red","397","sampling-task","151","940469","0.0-5.0-0.126-0.126","87","rl53u9wr","high"
"6","23","free","220","78","27","red-110","red","325","sampling-task","152","941861","0.0-5.0-0.127-0.127","87","rl53u9wr","high"
"6","24","free","220","78","74","red-79","red","334","sampling-task","153","942997","0.0-5.0-0.128-0.128","87","rl53u9wr","high"
"6","25","free","220","78","78","red-138","red","341","sampling-task","154","946389","0.0-5.0-0.129-0.129","87","rl53u9wr","high"
"6","26","free","220","78","70","red-195","red","742","sampling-task","155","948454","0.0-5.0-0.130-0.130","87","rl53u9wr","high"
"6","27","free","220","78","88","red-4","red","333","sampling-task","156","949701","0.0-5.0-0.131-0.131","87","rl53u9wr","high"
"6","28","free","220","78","56","red-216","red","309","sampling-task","157","950925","0.0-5.0-0.132-0.132","87","rl53u9wr","high"
"6","29","free","220","78","85","red-83","red","302","sampling-task","158","952181","0.0-5.0-0.133-0.133","87","rl53u9wr","high"
"6","30","free","220","78","50","red-158","red","294","sampling-task","159","953325","0.0-5.0-0.134-0.134","87","rl53u9wr","high"
"6","31","free","220","78","65","red-181","red","302","sampling-task","160","954437","0.0-5.0-0.135-0.135","87","rl53u9wr","high"
"6","32","free","220","78","73","red-117","red","237","sampling-task","161","955677","0.0-5.0-0.136-0.136","87","rl53u9wr","high"
"6","33","free","220","78","58","red-114","red","254","sampling-task","162","956733","0.0-5.0-0.137-0.137","87","rl53u9wr","high"
"6","34","free","220","78","76","red-137","red","261","sampling-task","163","958118","0.0-5.0-0.138-0.138","87","rl53u9wr","high"
"6","35","free","220","78","108","red-10","red","254","sampling-task","164","959717","0.0-5.0-0.139-0.139","87","rl53u9wr","high"
