"round_number","sample_number","sampling_type","nSamples","mean","feedback","stimulus","stimulus_colour","rt","trial_type","trial_index","time_elapsed","internal_node_id","participant","randomID","condition"
"1","1","fixed","20","71","41","blue-37","blue","15277","sampling-task","12","530141","0.0-5.0-0.0-0.0","43","04emfyfc","high"
"1","2","fixed","20","71","77","blue-51","blue","5678","sampling-task","13","549549","0.0-5.0-0.1-0.1","43","04emfyfc","high"
"1","3","fixed","20","71","59","blue-48","blue","9830","sampling-task","14","562557","0.0-5.0-0.2-0.2","43","04emfyfc","high"
"1","4","fixed","20","71","71","blue-136","blue","2790","sampling-task","15","567933","0.0-5.0-0.3-0.3","43","04emfyfc","high"
"1","5","fixed","20","71","71","blue-164","blue","8334","sampling-task","16","578115","0.0-5.0-0.4-0.4","43","04emfyfc","high"
"1","6","fixed","20","71","71","blue-10","blue","1574","sampling-task","17","581955","0.0-5.0-0.5-0.5","43","04emfyfc","high"
"1","7","fixed","20","71","72","blue-188","blue","1631","sampling-task","18","588491","0.0-5.0-0.6-0.6","43","04emfyfc","high"
"1","8","fixed","20","71","136","blue-39","blue","2614","sampling-task","19","596419","0.0-5.0-0.7-0.7","43","04emfyfc","high"
"1","9","fixed","20","71","75","blue-102","blue","3806","sampling-task","20","603059","0.0-5.0-0.8-0.8","43","04emfyfc","high"
"1","10","fixed","20","71","73","blue-163","blue","4806","sampling-task","21","610187","0.0-5.0-0.9-0.9","43","04emfyfc","high"
"1","11","fixed","20","71","92","blue-145","blue","8510","sampling-task","22","621299","0.0-5.0-0.10-0.10","43","04emfyfc","high"
"1","12","fixed","20","71","51","blue-44","blue","5622","sampling-task","23","629507","0.0-5.0-0.11-0.11","43","04emfyfc","high"
"1","13","fixed","20","71","98","blue-136","blue","2734","sampling-task","24","637690","0.0-5.0-0.12-0.12","43","04emfyfc","high"
"1","14","fixed","20","71","47","blue-100","blue","2246","sampling-task","25","642538","0.0-5.0-0.13-0.13","43","04emfyfc","high"
"1","15","fixed","20","71","40","blue-211","blue","7790","sampling-task","26","652210","0.0-5.0-0.14-0.14","43","04emfyfc","high"
"1","16","fixed","20","71","70","blue-123","blue","3918","sampling-task","27","658338","0.0-5.0-0.15-0.15","43","04emfyfc","high"
"1","17","fixed","20","71","87","blue-182","blue","2926","sampling-task","28","662858","0.0-5.0-0.16-0.16","43","04emfyfc","high"
"1","18","fixed","20","71","57","blue-72","blue","3014","sampling-task","29","667298","0.0-5.0-0.17-0.17","43","04emfyfc","high"
"1","19","fixed","20","71","91","blue-202","blue","4541","sampling-task","30","673522","0.0-5.0-0.18-0.18","43","04emfyfc","high"
"1","20","fixed","20","71","50","blue-185","blue","4550","sampling-task","31","680234","0.0-5.0-0.19-0.19","43","04emfyfc","high"
"2","1","free","220","34","43","yellow-138","yellow","5179","sampling-task","34","762688","0.0-5.0-0.20-0.20","43","04emfyfc","high"
"2","2","free","220","34","39","yellow-161","yellow","3654","sampling-task","35","768600","0.0-5.0-0.21-0.21","43","04emfyfc","high"
"2","3","free","220","34","5","yellow-1","yellow","1278","sampling-task","36","771152","0.0-5.0-0.22-0.22","43","04emfyfc","high"
"2","4","free","220","34","59","yellow-54","yellow","1206","sampling-task","37","774560","0.0-5.0-0.23-0.23","43","04emfyfc","high"
"2","5","free","220","34","59","yellow-115","yellow","919","sampling-task","38","776640","0.0-5.0-0.24-0.24","43","04emfyfc","high"
"2","6","free","220","34","-10","yellow-187","yellow","895","sampling-task","39","778976","0.0-5.0-0.25-0.25","43","04emfyfc","high"
"2","7","free","220","34","45","yellow-139","yellow","766","sampling-task","40","780864","0.0-5.0-0.26-0.26","43","04emfyfc","high"
"2","8","free","220","34","61","yellow-190","yellow","399","sampling-task","41","788184","0.0-5.0-0.27-0.27","43","04emfyfc","high"
"2","9","free","220","34","38","yellow-219","yellow","406","sampling-task","42","789712","0.0-5.0-0.28-0.28","43","04emfyfc","high"
"2","10","free","220","34","72","yellow-196","yellow","215","sampling-task","43","791992","0.0-5.0-0.29-0.29","43","04emfyfc","high"
"2","11","free","220","34","-18","yellow-129","yellow","655","sampling-task","44","793616","0.0-5.0-0.30-0.30","43","04emfyfc","high"
"2","12","free","220","34","31","yellow-9","yellow","343","sampling-task","45","795680","0.0-5.0-0.31-0.31","43","04emfyfc","high"
"2","13","free","220","34","58","yellow-219","yellow","287","sampling-task","46","797472","0.0-5.0-0.32-0.32","43","04emfyfc","high"
"2","14","free","220","34","49","yellow-157","yellow","327","sampling-task","47","799368","0.0-5.0-0.33-0.33","43","04emfyfc","high"
"2","15","free","220","34","57","yellow-134","yellow","375","sampling-task","48","801168","0.0-5.0-0.34-0.34","43","04emfyfc","high"
"2","16","free","220","34","38","yellow-29","yellow","838","sampling-task","49","802920","0.0-5.0-0.35-0.35","43","04emfyfc","high"
"2","17","free","220","34","8","yellow-82","yellow","463","sampling-task","50","804720","0.0-5.0-0.36-0.36","43","04emfyfc","high"
"2","18","free","220","34","64","yellow-24","yellow","407","sampling-task","51","806776","0.0-5.0-0.37-0.37","43","04emfyfc","high"
"2","19","free","220","34","39","yellow-29","yellow","374","sampling-task","52","808040","0.0-5.0-0.38-0.38","43","04emfyfc","high"
"2","20","free","220","34","16","yellow-20","yellow","359","sampling-task","53","809600","0.0-5.0-0.39-0.39","43","04emfyfc","high"
"2","21","free","220","34","20","yellow-143","yellow","271","sampling-task","54","811176","0.0-5.0-0.40-0.40","43","04emfyfc","high"
"2","22","free","220","34","62","yellow-213","yellow","383","sampling-task","55","813240","0.0-5.0-0.41-0.41","43","04emfyfc","high"
"3","1","fixed","10","51","32","red-98","red","3948","sampling-task","58","849159","0.0-5.0-0.42-0.42","43","04emfyfc","high"
"3","2","fixed","10","51","50","red-46","red","422","sampling-task","59","851015","0.0-5.0-0.43-0.43","43","04emfyfc","high"
"3","3","fixed","10","51","47","red-167","red","678","sampling-task","60","852647","0.0-5.0-0.44-0.44","43","04emfyfc","high"
"3","4","fixed","10","51","70","red-198","red","591","sampling-task","61","854391","0.0-5.0-0.45-0.45","43","04emfyfc","high"
"3","5","fixed","10","51","17","red-101","red","734","sampling-task","62","857127","0.0-5.0-0.46-0.46","43","04emfyfc","high"
"3","6","fixed","10","51","94","red-188","red","1254","sampling-task","63","859999","0.0-5.0-0.47-0.47","43","04emfyfc","high"
"3","7","fixed","10","51","53","red-111","red","886","sampling-task","64","862063","0.0-5.0-0.48-0.48","43","04emfyfc","high"
"3","8","fixed","10","51","55","red-71","red","950","sampling-task","65","865127","0.0-5.0-0.49-0.49","43","04emfyfc","high"
"3","9","fixed","10","51","94","red-156","red","2398","sampling-task","66","869047","0.0-5.0-0.50-0.50","43","04emfyfc","high"
"3","10","fixed","10","51","52","red-125","red","838","sampling-task","67","873055","0.0-5.0-0.51-0.51","43","04emfyfc","high"
"4","1","free","220","117","139","orange-77","orange","3044","sampling-task","70","893390","0.0-5.0-0.52-0.52","43","04emfyfc","high"
"4","2","free","220","117","119","orange-62","orange","613","sampling-task","71","895782","0.0-5.0-0.53-0.53","43","04emfyfc","high"
"4","3","free","220","117","114","orange-135","orange","446","sampling-task","72","897478","0.0-5.0-0.54-0.54","43","04emfyfc","high"
"4","4","free","220","117","107","orange-56","orange","495","sampling-task","73","898806","0.0-5.0-0.55-0.55","43","04emfyfc","high"
"4","5","free","220","117","135","orange-80","orange","294","sampling-task","74","899926","0.0-5.0-0.56-0.56","43","04emfyfc","high"
"4","6","free","220","117","142","orange-170","orange","278","sampling-task","75","901014","0.0-5.0-0.57-0.57","43","04emfyfc","high"
"4","7","free","220","117","99","orange-105","orange","262","sampling-task","76","902102","0.0-5.0-0.58-0.58","43","04emfyfc","high"
"4","8","free","220","117","127","orange-181","orange","246","sampling-task","77","903214","0.0-5.0-0.59-0.59","43","04emfyfc","high"
"4","9","free","220","117","106","orange-55","orange","533","sampling-task","78","904902","0.0-5.0-0.60-0.60","43","04emfyfc","high"
"4","10","free","220","117","100","orange-116","orange","310","sampling-task","79","906022","0.0-5.0-0.61-0.61","43","04emfyfc","high"
"4","11","free","220","117","160","orange-126","orange","358","sampling-task","80","907334","0.0-5.0-0.62-0.62","43","04emfyfc","high"
"4","12","free","220","117","98","orange-127","orange","341","sampling-task","81","908510","0.0-5.0-0.63-0.63","43","04emfyfc","high"
"4","13","free","220","117","130","orange-220","orange","303","sampling-task","82","909678","0.0-5.0-0.64-0.64","43","04emfyfc","high"
"5","1","fixed","5","97","91","green-35","green","1500","sampling-task","85","932262","0.0-5.0-0.65-0.65","43","04emfyfc","high"
"5","2","fixed","5","97","61","green-199","green","831","sampling-task","86","934838","0.0-5.0-0.66-0.66","43","04emfyfc","high"
"5","3","fixed","5","97","104","green-156","green","798","sampling-task","87","936542","0.0-5.0-0.67-0.67","43","04emfyfc","high"
"5","4","fixed","5","97","73","green-139","green","606","sampling-task","88","938022","0.0-5.0-0.68-0.68","43","04emfyfc","high"
"5","5","fixed","5","97","108","green-178","green","725","sampling-task","89","939661","0.0-5.0-0.69-0.69","43","04emfyfc","high"
"6","1","free","220","19","36","purple-165","purple","1581","sampling-task","92","956445","0.0-5.0-0.70-0.70","43","04emfyfc","high"
"6","2","free","220","19","2","purple-17","purple","262","sampling-task","93","957518","0.0-5.0-0.71-0.71","43","04emfyfc","high"
"6","3","free","220","19","-12","purple-93","purple","214","sampling-task","94","958533","0.0-5.0-0.72-0.72","43","04emfyfc","high"
"6","4","free","220","19","9","purple-108","purple","230","sampling-task","95","959590","0.0-5.0-0.73-0.73","43","04emfyfc","high"
"6","5","free","220","19","12","purple-219","purple","246","sampling-task","96","960613","0.0-5.0-0.74-0.74","43","04emfyfc","high"
"6","6","free","220","19","22","purple-185","purple","238","sampling-task","97","961718","0.0-5.0-0.75-0.75","43","04emfyfc","high"
"6","7","free","220","19","42","purple-141","purple","270","sampling-task","98","963261","0.0-5.0-0.76-0.76","43","04emfyfc","high"
"6","8","free","220","19","25","purple-109","purple","566","sampling-task","99","964781","0.0-5.0-0.77-0.77","43","04emfyfc","high"
"6","9","free","220","19","14","purple-7","purple","654","sampling-task","100","966421","0.0-5.0-0.78-0.78","43","04emfyfc","high"
"6","10","free","220","19","2","purple-218","purple","471","sampling-task","101","967757","0.0-5.0-0.79-0.79","43","04emfyfc","high"
