"round_number","sample_number","sampling_type","nSamples","mean","feedback","stimulus","stimulus_colour","rt","trial_type","trial_index","time_elapsed","internal_node_id","participant","randomID","condition"
"1","1","fixed","20","96","94","green-127","green","7912","sampling-task","6","823777","0.0-5.0-0.0-0.0","81","my5xr63d","low"
"1","2","fixed","20","96","105","green-127","green","1070","sampling-task","7","826401","0.0-5.0-0.1-0.1","81","my5xr63d","low"
"1","3","fixed","20","96","66","green-127","green","838","sampling-task","8","828849","0.0-5.0-0.2-0.2","81","my5xr63d","low"
"1","4","fixed","20","96","103","green-127","green","742","sampling-task","9","835801","0.0-5.0-0.3-0.3","81","my5xr63d","low"
"1","5","fixed","20","96","107","green-127","green","974","sampling-task","10","839681","0.0-5.0-0.4-0.4","81","my5xr63d","low"
"1","6","fixed","20","96","104","green-127","green","12742","sampling-task","11","853521","0.0-5.0-0.5-0.5","81","my5xr63d","low"
"1","7","fixed","20","96","80","green-127","green","614","sampling-task","12","855017","0.0-5.0-0.6-0.6","81","my5xr63d","low"
"1","8","fixed","20","96","117","green-127","green","654","sampling-task","13","856785","0.0-5.0-0.7-0.7","81","my5xr63d","low"
"1","9","fixed","20","96","118","green-127","green","662","sampling-task","14","858441","0.0-5.0-0.8-0.8","81","my5xr63d","low"
"1","10","fixed","20","96","98","green-127","green","886","sampling-task","15","860513","0.0-5.0-0.9-0.9","81","my5xr63d","low"
"1","11","fixed","20","96","114","green-127","green","670","sampling-task","16","862225","0.0-5.0-0.10-0.10","81","my5xr63d","low"
"1","12","fixed","20","96","92","green-127","green","734","sampling-task","17","864312","0.0-5.0-0.11-0.11","81","my5xr63d","low"
"1","13","fixed","20","96","105","green-127","green","590","sampling-task","18","865896","0.0-5.0-0.12-0.12","81","my5xr63d","low"
"1","14","fixed","20","96","144","green-127","green","726","sampling-task","19","868448","0.0-5.0-0.13-0.13","81","my5xr63d","low"
"1","15","fixed","20","96","87","green-127","green","838","sampling-task","20","870368","0.0-5.0-0.14-0.14","81","my5xr63d","low"
"1","16","fixed","20","96","87","green-127","green","822","sampling-task","21","872233","0.0-5.0-0.15-0.15","81","my5xr63d","low"
"1","17","fixed","20","96","90","green-127","green","924","sampling-task","22","874343","0.0-5.0-0.16-0.16","81","my5xr63d","low"
"1","18","fixed","20","96","78","green-127","green","758","sampling-task","23","876087","0.0-5.0-0.17-0.17","81","my5xr63d","low"
"1","19","fixed","20","96","82","green-127","green","781","sampling-task","24","878007","0.0-5.0-0.18-0.18","81","my5xr63d","low"
"1","20","fixed","20","96","119","green-127","green","621","sampling-task","25","879807","0.0-5.0-0.19-0.19","81","my5xr63d","low"
"2","1","free","220","14","-7","red-191","red","4483","sampling-task","28","933389","0.0-5.0-0.20-0.20","81","my5xr63d","low"
"2","2","free","220","14","11","red-191","red","726","sampling-task","29","935549","0.0-5.0-0.21-0.21","81","my5xr63d","low"
"2","3","free","220","14","-10","red-191","red","1326","sampling-task","30","938005","0.0-5.0-0.22-0.22","81","my5xr63d","low"
"2","4","free","220","14","-31","red-191","red","846","sampling-task","31","940172","0.0-5.0-0.23-0.23","81","my5xr63d","low"
"2","5","free","220","14","14","red-191","red","878","sampling-task","32","942868","0.0-5.0-0.24-0.24","81","my5xr63d","low"
"2","6","free","220","14","-7","red-191","red","1318","sampling-task","33","946613","0.0-5.0-0.25-0.25","81","my5xr63d","low"
"2","7","free","220","14","-22","red-191","red","909","sampling-task","34","952244","0.0-5.0-0.26-0.26","81","my5xr63d","low"
"2","8","free","220","14","30","red-191","red","942","sampling-task","35","954876","0.0-5.0-0.27-0.27","81","my5xr63d","low"
"2","9","free","220","14","13","red-191","red","1038","sampling-task","36","957324","0.0-5.0-0.28-0.28","81","my5xr63d","low"
"2","10","free","220","14","-5","red-191","red","1294","sampling-task","37","959693","0.0-5.0-0.29-0.29","81","my5xr63d","low"
"2","11","free","220","14","7","red-191","red","1422","sampling-task","38","965884","0.0-5.0-0.30-0.30","81","my5xr63d","low"
"2","12","free","220","14","-8","red-191","red","1006","sampling-task","39","969940","0.0-5.0-0.31-0.31","81","my5xr63d","low"
"2","13","free","220","14","2","red-191","red","542","sampling-task","40","972340","0.0-5.0-0.32-0.32","81","my5xr63d","low"
"2","14","free","220","14","31","red-191","red","622","sampling-task","41","976540","0.0-5.0-0.33-0.33","81","my5xr63d","low"
"2","15","free","220","14","8","red-191","red","1814","sampling-task","42","979580","0.0-5.0-0.34-0.34","81","my5xr63d","low"
"2","16","free","220","14","8","red-191","red","542","sampling-task","43","981085","0.0-5.0-0.35-0.35","81","my5xr63d","low"
"2","17","free","220","14","48","red-191","red","742","sampling-task","44","982973","0.0-5.0-0.36-0.36","81","my5xr63d","low"
"2","18","free","220","14","-25","red-191","red","734","sampling-task","45","987028","0.0-5.0-0.37-0.37","81","my5xr63d","low"
"2","19","free","220","14","-17","red-191","red","510","sampling-task","46","988725","0.0-5.0-0.38-0.38","81","my5xr63d","low"
"2","20","free","220","14","39","red-191","red","454","sampling-task","47","1000058","0.0-5.0-0.39-0.39","81","my5xr63d","low"
"2","21","free","220","14","1","red-191","red","684","sampling-task","48","1002090","0.0-5.0-0.40-0.40","81","my5xr63d","low"
"2","22","free","220","14","-10","red-191","red","646","sampling-task","49","1004219","0.0-5.0-0.41-0.41","81","my5xr63d","low"
"3","1","fixed","5","113","170","purple-136","purple","3964","sampling-task","52","1041298","0.0-5.0-0.42-0.42","81","my5xr63d","low"
"3","2","fixed","5","113","126","purple-136","purple","750","sampling-task","53","1043946","0.0-5.0-0.43-0.43","81","my5xr63d","low"
"3","3","fixed","5","113","90","purple-136","purple","757","sampling-task","54","1046090","0.0-5.0-0.44-0.44","81","my5xr63d","low"
"3","4","fixed","5","113","129","purple-136","purple","1101","sampling-task","55","1048722","0.0-5.0-0.45-0.45","81","my5xr63d","low"
"3","5","fixed","5","113","129","purple-136","purple","878","sampling-task","56","1051786","0.0-5.0-0.46-0.46","81","my5xr63d","low"
"4","1","free","220","72","90","blue-178","blue","3021","sampling-task","59","1091023","0.0-5.0-0.47-0.47","81","my5xr63d","low"
"4","2","free","220","72","81","blue-178","blue","805","sampling-task","60","1092839","0.0-5.0-0.48-0.48","81","my5xr63d","low"
"4","3","free","220","72","92","blue-178","blue","582","sampling-task","61","1094479","0.0-5.0-0.49-0.49","81","my5xr63d","low"
"4","4","free","220","72","32","blue-178","blue","582","sampling-task","62","1096055","0.0-5.0-0.50-0.50","81","my5xr63d","low"
"4","5","free","220","72","66","blue-178","blue","734","sampling-task","63","1097832","0.0-5.0-0.51-0.51","81","my5xr63d","low"
"4","6","free","220","72","108","blue-178","blue","654","sampling-task","64","1099503","0.0-5.0-0.52-0.52","81","my5xr63d","low"
"4","7","free","220","72","94","blue-178","blue","870","sampling-task","65","1101527","0.0-5.0-0.53-0.53","81","my5xr63d","low"
"4","8","free","220","72","90","blue-178","blue","670","sampling-task","66","1103151","0.0-5.0-0.54-0.54","81","my5xr63d","low"
"4","9","free","220","72","58","blue-178","blue","638","sampling-task","67","1104656","0.0-5.0-0.55-0.55","81","my5xr63d","low"
"4","10","free","220","72","108","blue-178","blue","550","sampling-task","68","1106104","0.0-5.0-0.56-0.56","81","my5xr63d","low"
"4","11","free","220","72","80","blue-178","blue","606","sampling-task","69","1107551","0.0-5.0-0.57-0.57","81","my5xr63d","low"
"4","12","free","220","72","57","blue-178","blue","550","sampling-task","70","1109199","0.0-5.0-0.58-0.58","81","my5xr63d","low"
"4","13","free","220","72","65","blue-178","blue","582","sampling-task","71","1110743","0.0-5.0-0.59-0.59","81","my5xr63d","low"
"4","14","free","220","72","28","blue-178","blue","510","sampling-task","72","1112447","0.0-5.0-0.60-0.60","81","my5xr63d","low"
"4","15","free","220","72","61","blue-178","blue","702","sampling-task","73","1114215","0.0-5.0-0.61-0.61","81","my5xr63d","low"
"4","16","free","220","72","65","blue-178","blue","686","sampling-task","74","1115895","0.0-5.0-0.62-0.62","81","my5xr63d","low"
"4","17","free","220","72","122","blue-178","blue","438","sampling-task","75","1117424","0.0-5.0-0.63-0.63","81","my5xr63d","low"
"4","18","free","220","72","50","blue-178","blue","486","sampling-task","76","1118816","0.0-5.0-0.64-0.64","81","my5xr63d","low"
"4","19","free","220","72","78","blue-178","blue","406","sampling-task","77","1120080","0.0-5.0-0.65-0.65","81","my5xr63d","low"
"4","20","free","220","72","80","blue-178","blue","422","sampling-task","78","1121352","0.0-5.0-0.66-0.66","81","my5xr63d","low"
"4","21","free","220","72","68","blue-178","blue","381","sampling-task","79","1122558","0.0-5.0-0.67-0.67","81","my5xr63d","low"
"4","22","free","220","72","83","blue-178","blue","406","sampling-task","80","1123998","0.0-5.0-0.68-0.68","81","my5xr63d","low"
"4","23","free","220","72","109","blue-178","blue","550","sampling-task","81","1125422","0.0-5.0-0.69-0.69","81","my5xr63d","low"
"4","24","free","220","72","48","blue-178","blue","398","sampling-task","82","1126686","0.0-5.0-0.70-0.70","81","my5xr63d","low"
"4","25","free","220","72","69","blue-178","blue","350","sampling-task","83","1128286","0.0-5.0-0.71-0.71","81","my5xr63d","low"
"4","26","free","220","72","89","blue-178","blue","398","sampling-task","84","1129950","0.0-5.0-0.72-0.72","81","my5xr63d","low"
"5","1","fixed","10","32","-6","orange-22","orange","2724","sampling-task","87","1163726","0.0-5.0-0.73-0.73","81","my5xr63d","low"
"5","2","fixed","10","32","34","orange-22","orange","510","sampling-task","88","1166269","0.0-5.0-0.74-0.74","81","my5xr63d","low"
"5","3","fixed","10","32","26","orange-22","orange","965","sampling-task","89","1168174","0.0-5.0-0.75-0.75","81","my5xr63d","low"
"5","4","fixed","10","32","31","orange-22","orange","830","sampling-task","90","1169942","0.0-5.0-0.76-0.76","81","my5xr63d","low"
"5","5","fixed","10","32","40","orange-22","orange","606","sampling-task","91","1171878","0.0-5.0-0.77-0.77","81","my5xr63d","low"
"5","6","fixed","10","32","17","orange-22","orange","590","sampling-task","92","1173510","0.0-5.0-0.78-0.78","81","my5xr63d","low"
"5","7","fixed","10","32","30","orange-22","orange","485","sampling-task","93","1175190","0.0-5.0-0.79-0.79","81","my5xr63d","low"
"5","8","fixed","10","32","49","orange-22","orange","502","sampling-task","94","1176774","0.0-5.0-0.80-0.80","81","my5xr63d","low"
"5","9","fixed","10","32","38","orange-22","orange","694","sampling-task","95","1178774","0.0-5.0-0.81-0.81","81","my5xr63d","low"
"5","10","fixed","10","32","46","orange-22","orange","806","sampling-task","96","1180654","0.0-5.0-0.82-0.82","81","my5xr63d","low"
"6","1","free","220","55","53","yellow-103","yellow","2068","sampling-task","99","1207290","0.0-5.0-0.83-0.83","81","my5xr63d","low"
"6","2","free","220","55","81","yellow-103","yellow","414","sampling-task","100","1208634","0.0-5.0-0.84-0.84","81","my5xr63d","low"
"6","3","free","220","55","43","yellow-103","yellow","422","sampling-task","101","1209914","0.0-5.0-0.85-0.85","81","my5xr63d","low"
"6","4","free","220","55","38","yellow-103","yellow","421","sampling-task","102","1214082","0.0-5.0-0.86-0.86","81","my5xr63d","low"
"6","5","free","220","55","62","yellow-103","yellow","781","sampling-task","103","1216090","0.0-5.0-0.87-0.87","81","my5xr63d","low"
"6","6","free","220","55","100","yellow-103","yellow","454","sampling-task","104","1217802","0.0-5.0-0.88-0.88","81","my5xr63d","low"
"6","7","free","220","55","32","yellow-103","yellow","509","sampling-task","105","1219258","0.0-5.0-0.89-0.89","81","my5xr63d","low"
"6","8","free","220","55","49","yellow-103","yellow","493","sampling-task","106","1220874","0.0-5.0-0.90-0.90","81","my5xr63d","low"
"6","9","free","220","55","54","yellow-103","yellow","517","sampling-task","107","1229786","0.0-5.0-0.91-0.91","81","my5xr63d","low"
"6","10","free","220","55","87","yellow-103","yellow","805","sampling-task","108","1233010","0.0-5.0-0.92-0.92","81","my5xr63d","low"
"6","11","free","220","55","56","yellow-103","yellow","709","sampling-task","109","1234970","0.0-5.0-0.93-0.93","81","my5xr63d","low"
"6","12","free","220","55","37","yellow-103","yellow","485","sampling-task","110","1236786","0.0-5.0-0.94-0.94","81","my5xr63d","low"
"6","13","free","220","55","80","yellow-103","yellow","621","sampling-task","111","1238778","0.0-5.0-0.95-0.95","81","my5xr63d","low"
"6","14","free","220","55","77","yellow-103","yellow","454","sampling-task","112","1243291","0.0-5.0-0.96-0.96","81","my5xr63d","low"
"6","15","free","220","55","60","yellow-103","yellow","646","sampling-task","113","1245003","0.0-5.0-0.97-0.97","81","my5xr63d","low"
"6","16","free","220","55","61","yellow-103","yellow","318","sampling-task","114","1246148","0.0-5.0-0.98-0.98","81","my5xr63d","low"
"6","17","free","220","55","47","yellow-103","yellow","390","sampling-task","115","1247395","0.0-5.0-0.99-0.99","81","my5xr63d","low"
"6","18","free","220","55","57","yellow-103","yellow","310","sampling-task","116","1248531","0.0-5.0-0.100-0.100","81","my5xr63d","low"
"6","19","free","220","55","70","yellow-103","yellow","358","sampling-task","117","1249723","0.0-5.0-0.101-0.101","81","my5xr63d","low"
"6","20","free","220","55","56","yellow-103","yellow","310","sampling-task","118","1251252","0.0-5.0-0.102-0.102","81","my5xr63d","low"
