"round_number","sample_number","sampling_type","nSamples","mean","feedback","stimulus","stimulus_colour","rt","trial_type","trial_index","time_elapsed","internal_node_id","participant","randomID","condition"
"1","1","fixed","20","90","75","green-198","green","8757","sampling-task","6","364132","0.0-5.0-0.0-0.0","22","j7l3khkq","low"
"1","2","fixed","20","90","91","green-198","green","3846","sampling-task","7","370931","0.0-5.0-0.1-0.1","22","j7l3khkq","low"
"1","3","fixed","20","90","66","green-198","green","25286","sampling-task","8","399499","0.0-5.0-0.2-0.2","22","j7l3khkq","low"
"1","4","fixed","20","90","106","green-198","green","1918","sampling-task","9","406092","0.0-5.0-0.3-0.3","22","j7l3khkq","low"
"1","5","fixed","20","90","87","green-198","green","1614","sampling-task","10","409627","0.0-5.0-0.4-0.4","22","j7l3khkq","low"
"1","6","fixed","20","90","124","green-198","green","1590","sampling-task","11","414099","0.0-5.0-0.5-0.5","22","j7l3khkq","low"
"1","7","fixed","20","90","103","green-198","green","1174","sampling-task","12","417467","0.0-5.0-0.6-0.6","22","j7l3khkq","low"
"1","8","fixed","20","90","68","green-198","green","1143","sampling-task","13","420755","0.0-5.0-0.7-0.7","22","j7l3khkq","low"
"1","9","fixed","20","90","106","green-198","green","1613","sampling-task","14","424259","0.0-5.0-0.8-0.8","22","j7l3khkq","low"
"1","10","fixed","20","90","116","green-198","green","1590","sampling-task","15","427219","0.0-5.0-0.9-0.9","22","j7l3khkq","low"
"1","11","fixed","20","90","56","green-198","green","1039","sampling-task","16","429659","0.0-5.0-0.10-0.10","22","j7l3khkq","low"
"1","12","fixed","20","90","98","green-198","green","1309","sampling-task","17","432811","0.0-5.0-0.11-0.11","22","j7l3khkq","low"
"1","13","fixed","20","90","74","green-198","green","966","sampling-task","18","435667","0.0-5.0-0.12-0.12","22","j7l3khkq","low"
"1","14","fixed","20","90","96","green-198","green","894","sampling-task","19","438083","0.0-5.0-0.13-0.13","22","j7l3khkq","low"
"1","15","fixed","20","90","70","green-198","green","766","sampling-task","20","440363","0.0-5.0-0.14-0.14","22","j7l3khkq","low"
"1","16","fixed","20","90","122","green-198","green","974","sampling-task","21","442915","0.0-5.0-0.15-0.15","22","j7l3khkq","low"
"1","17","fixed","20","90","62","green-198","green","950","sampling-task","22","445315","0.0-5.0-0.16-0.16","22","j7l3khkq","low"
"1","18","fixed","20","90","91","green-198","green","998","sampling-task","23","447715","0.0-5.0-0.17-0.17","22","j7l3khkq","low"
"1","19","fixed","20","90","98","green-198","green","1117","sampling-task","24","450331","0.0-5.0-0.18-0.18","22","j7l3khkq","low"
"1","20","fixed","20","90","83","green-198","green","1526","sampling-task","25","455955","0.0-5.0-0.19-0.19","22","j7l3khkq","low"
"2","1","free","220","56","50","purple-175","purple","9124","sampling-task","28","526882","0.0-5.0-0.20-0.20","22","j7l3khkq","low"
"2","2","free","220","56","76","purple-175","purple","1374","sampling-task","29","530042","0.0-5.0-0.21-0.21","22","j7l3khkq","low"
"2","3","free","220","56","74","purple-175","purple","1094","sampling-task","30","532418","0.0-5.0-0.22-0.22","22","j7l3khkq","low"
"2","4","free","220","56","31","purple-175","purple","950","sampling-task","31","534722","0.0-5.0-0.23-0.23","22","j7l3khkq","low"
"2","5","free","220","56","76","purple-175","purple","766","sampling-task","32","536666","0.0-5.0-0.24-0.24","22","j7l3khkq","low"
"2","6","free","220","56","96","purple-175","purple","790","sampling-task","33","538682","0.0-5.0-0.25-0.25","22","j7l3khkq","low"
"2","7","free","220","56","71","purple-175","purple","734","sampling-task","34","540466","0.0-5.0-0.26-0.26","22","j7l3khkq","low"
"2","8","free","220","56","60","purple-175","purple","790","sampling-task","35","542570","0.0-5.0-0.27-0.27","22","j7l3khkq","low"
"2","9","free","220","56","44","purple-175","purple","790","sampling-task","36","544498","0.0-5.0-0.28-0.28","22","j7l3khkq","low"
"2","10","free","220","56","61","purple-175","purple","798","sampling-task","37","546434","0.0-5.0-0.29-0.29","22","j7l3khkq","low"
"2","11","free","220","56","38","purple-175","purple","854","sampling-task","38","548378","0.0-5.0-0.30-0.30","22","j7l3khkq","low"
"2","12","free","220","56","65","purple-175","purple","718","sampling-task","39","550202","0.0-5.0-0.31-0.31","22","j7l3khkq","low"
"2","13","free","220","56","111","purple-175","purple","886","sampling-task","40","552682","0.0-5.0-0.32-0.32","22","j7l3khkq","low"
"3","1","fixed","5","33","50","blue-92","blue","3156","sampling-task","43","593522","0.0-5.0-0.33-0.33","22","j7l3khkq","low"
"3","2","fixed","5","33","72","blue-92","blue","1022","sampling-task","44","596026","0.0-5.0-0.34-0.34","22","j7l3khkq","low"
"3","3","fixed","5","33","25","blue-92","blue","967","sampling-task","45","598922","0.0-5.0-0.35-0.35","22","j7l3khkq","low"
"3","4","fixed","5","33","52","blue-92","blue","781","sampling-task","46","601650","0.0-5.0-0.36-0.36","22","j7l3khkq","low"
"3","5","fixed","5","33","38","blue-92","blue","606","sampling-task","47","604010","0.0-5.0-0.37-0.37","22","j7l3khkq","low"
"4","1","free","220","119","102","red-75","red","5508","sampling-task","50","644218","0.0-5.0-0.38-0.38","22","j7l3khkq","low"
"4","2","free","220","119","122","red-75","red","622","sampling-task","51","646434","0.0-5.0-0.39-0.39","22","j7l3khkq","low"
"4","3","free","220","119","110","red-75","red","549","sampling-task","52","648674","0.0-5.0-0.40-0.40","22","j7l3khkq","low"
"4","4","free","220","119","115","red-75","red","574","sampling-task","53","650770","0.0-5.0-0.41-0.41","22","j7l3khkq","low"
"4","5","free","220","119","98","red-75","red","574","sampling-task","54","652602","0.0-5.0-0.42-0.42","22","j7l3khkq","low"
"4","6","free","220","119","101","red-75","red","614","sampling-task","55","654650","0.0-5.0-0.43-0.43","22","j7l3khkq","low"
"4","7","free","220","119","95","red-75","red","574","sampling-task","56","656514","0.0-5.0-0.44-0.44","22","j7l3khkq","low"
"4","8","free","220","119","129","red-75","red","646","sampling-task","57","659298","0.0-5.0-0.45-0.45","22","j7l3khkq","low"
"4","9","free","220","119","127","red-75","red","558","sampling-task","58","661066","0.0-5.0-0.46-0.46","22","j7l3khkq","low"
"4","10","free","220","119","147","red-75","red","558","sampling-task","59","663106","0.0-5.0-0.47-0.47","22","j7l3khkq","low"
"4","11","free","220","119","129","red-75","red","526","sampling-task","60","664850","0.0-5.0-0.48-0.48","22","j7l3khkq","low"
"4","12","free","220","119","102","red-75","red","518","sampling-task","61","666354","0.0-5.0-0.49-0.49","22","j7l3khkq","low"
"4","13","free","220","119","142","red-75","red","526","sampling-task","62","668266","0.0-5.0-0.50-0.50","22","j7l3khkq","low"
"4","14","free","220","119","133","red-75","red","517","sampling-task","63","670082","0.0-5.0-0.51-0.51","22","j7l3khkq","low"
"4","15","free","220","119","108","red-75","red","454","sampling-task","64","671585","0.0-5.0-0.52-0.52","22","j7l3khkq","low"
"4","16","free","220","119","100","red-75","red","446","sampling-task","65","673026","0.0-5.0-0.53-0.53","22","j7l3khkq","low"
"4","17","free","220","119","127","red-75","red","486","sampling-task","66","674857","0.0-5.0-0.54-0.54","22","j7l3khkq","low"
"5","1","fixed","10","11","41","yellow-218","yellow","4389","sampling-task","69","705577","0.0-5.0-0.55-0.55","22","j7l3khkq","low"
"5","2","fixed","10","11","15","yellow-218","yellow","734","sampling-task","70","707601","0.0-5.0-0.56-0.56","22","j7l3khkq","low"
"5","3","fixed","10","11","11","yellow-218","yellow","974","sampling-task","71","710034","0.0-5.0-0.57-0.57","22","j7l3khkq","low"
"5","4","fixed","10","11","-17","yellow-218","yellow","582","sampling-task","72","715026","0.0-5.0-0.58-0.58","22","j7l3khkq","low"
"5","5","fixed","10","11","14","yellow-218","yellow","694","sampling-task","73","716969","0.0-5.0-0.59-0.59","22","j7l3khkq","low"
"5","6","fixed","10","11","-17","yellow-218","yellow","567","sampling-task","74","718689","0.0-5.0-0.60-0.60","22","j7l3khkq","low"
"5","7","fixed","10","11","3","yellow-218","yellow","638","sampling-task","75","720425","0.0-5.0-0.61-0.61","22","j7l3khkq","low"
"5","8","fixed","10","11","20","yellow-218","yellow","606","sampling-task","76","722097","0.0-5.0-0.62-0.62","22","j7l3khkq","low"
"5","9","fixed","10","11","31","yellow-218","yellow","566","sampling-task","77","724017","0.0-5.0-0.63-0.63","22","j7l3khkq","low"
"5","10","fixed","10","11","-30","yellow-218","yellow","622","sampling-task","78","725881","0.0-5.0-0.64-0.64","22","j7l3khkq","low"
"6","1","free","220","75","91","orange-8","orange","2684","sampling-task","81","755897","0.0-5.0-0.65-0.65","22","j7l3khkq","low"
"6","2","free","220","75","85","orange-8","orange","781","sampling-task","82","757745","0.0-5.0-0.66-0.66","22","j7l3khkq","low"
"6","3","free","220","75","68","orange-8","orange","559","sampling-task","83","759585","0.0-5.0-0.67-0.67","22","j7l3khkq","low"
"6","4","free","220","75","71","orange-8","orange","725","sampling-task","84","761393","0.0-5.0-0.68-0.68","22","j7l3khkq","low"
"6","5","free","220","75","80","orange-8","orange","606","sampling-task","85","763113","0.0-5.0-0.69-0.69","22","j7l3khkq","low"
"6","6","free","220","75","60","orange-8","orange","606","sampling-task","86","764961","0.0-5.0-0.70-0.70","22","j7l3khkq","low"
"6","7","free","220","75","61","orange-8","orange","614","sampling-task","87","766641","0.0-5.0-0.71-0.71","22","j7l3khkq","low"
"6","8","free","220","75","75","orange-8","orange","637","sampling-task","88","768289","0.0-5.0-0.72-0.72","22","j7l3khkq","low"
"6","9","free","220","75","71","orange-8","orange","630","sampling-task","89","769865","0.0-5.0-0.73-0.73","22","j7l3khkq","low"
"6","10","free","220","75","104","orange-8","orange","725","sampling-task","90","771745","0.0-5.0-0.74-0.74","22","j7l3khkq","low"
"6","11","free","220","75","82","orange-8","orange","629","sampling-task","91","773585","0.0-5.0-0.75-0.75","22","j7l3khkq","low"
"6","12","free","220","75","67","orange-8","orange","1365","sampling-task","92","776153","0.0-5.0-0.76-0.76","22","j7l3khkq","low"
"6","13","free","220","75","82","orange-8","orange","558","sampling-task","93","777937","0.0-5.0-0.77-0.77","22","j7l3khkq","low"
"6","14","free","220","75","55","orange-8","orange","574","sampling-task","94","779985","0.0-5.0-0.78-0.78","22","j7l3khkq","low"
"6","15","free","220","75","64","orange-8","orange","815","sampling-task","95","782761","0.0-5.0-0.79-0.79","22","j7l3khkq","low"
"6","16","free","220","75","92","orange-8","orange","1325","sampling-task","96","786041","0.0-5.0-0.80-0.80","22","j7l3khkq","low"
