"round_number","sample_number","sampling_type","nSamples","mean","feedback","stimulus","stimulus_colour","rt","trial_type","trial_index","time_elapsed","internal_node_id","participant","randomID","condition"
"1","1","fixed","20","90","99","blue-166","blue","5751","sampling-task","6","331286","0.0-5.0-0.0-0.0","69","u1mefgok","low"
"1","2","fixed","20","90","85","blue-166","blue","15813","sampling-task","7","350133","0.0-5.0-0.1-0.1","69","u1mefgok","low"
"1","3","fixed","20","90","83","blue-166","blue","726","sampling-task","8","355781","0.0-5.0-0.2-0.2","69","u1mefgok","low"
"1","4","fixed","20","90","130","blue-166","blue","6430","sampling-task","9","364277","0.0-5.0-0.3-0.3","69","u1mefgok","low"
"1","5","fixed","20","90","111","blue-166","blue","3790","sampling-task","10","369317","0.0-5.0-0.4-0.4","69","u1mefgok","low"
"1","6","fixed","20","90","91","blue-166","blue","998","sampling-task","11","371390","0.0-5.0-0.5-0.5","69","u1mefgok","low"
"1","7","fixed","20","90","90","blue-166","blue","1318","sampling-task","12","373813","0.0-5.0-0.6-0.6","69","u1mefgok","low"
"1","8","fixed","20","90","118","blue-166","blue","974","sampling-task","13","375805","0.0-5.0-0.7-0.7","69","u1mefgok","low"
"1","9","fixed","20","90","116","blue-166","blue","1359","sampling-task","14","378269","0.0-5.0-0.8-0.8","69","u1mefgok","low"
"1","10","fixed","20","90","75","blue-166","blue","1543","sampling-task","15","380853","0.0-5.0-0.9-0.9","69","u1mefgok","low"
"1","11","fixed","20","90","97","blue-166","blue","3846","sampling-task","16","385758","0.0-5.0-0.10-0.10","69","u1mefgok","low"
"1","12","fixed","20","90","79","blue-166","blue","750","sampling-task","17","387597","0.0-5.0-0.11-0.11","69","u1mefgok","low"
"1","13","fixed","20","90","104","blue-166","blue","718","sampling-task","18","389301","0.0-5.0-0.12-0.12","69","u1mefgok","low"
"1","14","fixed","20","90","86","blue-166","blue","998","sampling-task","19","391397","0.0-5.0-0.13-0.13","69","u1mefgok","low"
"1","15","fixed","20","90","82","blue-166","blue","942","sampling-task","20","393189","0.0-5.0-0.14-0.14","69","u1mefgok","low"
"1","16","fixed","20","90","99","blue-166","blue","1110","sampling-task","21","398908","0.0-5.0-0.15-0.15","69","u1mefgok","low"
"1","17","fixed","20","90","67","blue-166","blue","1526","sampling-task","22","401484","0.0-5.0-0.16-0.16","69","u1mefgok","low"
"1","18","fixed","20","90","107","blue-166","blue","886","sampling-task","23","403596","0.0-5.0-0.17-0.17","69","u1mefgok","low"
"1","19","fixed","20","90","102","blue-166","blue","1710","sampling-task","24","406405","0.0-5.0-0.18-0.18","69","u1mefgok","low"
"1","20","fixed","20","90","68","blue-166","blue","2054","sampling-task","25","410573","0.0-5.0-0.19-0.19","69","u1mefgok","low"
"2","1","free","220","10","6","orange-212","orange","2688","sampling-task","28","468276","0.0-5.0-0.20-0.20","69","u1mefgok","low"
"2","2","free","220","10","26","orange-212","orange","486","sampling-task","29","469868","0.0-5.0-0.21-0.21","69","u1mefgok","low"
"2","3","free","220","10","37","orange-212","orange","710","sampling-task","30","471612","0.0-5.0-0.22-0.22","69","u1mefgok","low"
"2","4","free","220","10","52","orange-212","orange","630","sampling-task","31","473500","0.0-5.0-0.23-0.23","69","u1mefgok","low"
"2","5","free","220","10","-18","orange-212","orange","494","sampling-task","32","475148","0.0-5.0-0.24-0.24","69","u1mefgok","low"
"2","6","free","220","10","57","orange-212","orange","478","sampling-task","33","476548","0.0-5.0-0.25-0.25","69","u1mefgok","low"
"2","7","free","220","10","9","orange-212","orange","476","sampling-task","34","478116","0.0-5.0-0.26-0.26","69","u1mefgok","low"
"2","8","free","220","10","8","orange-212","orange","366","sampling-task","35","479364","0.0-5.0-0.27-0.27","69","u1mefgok","low"
"2","9","free","220","10","1","orange-212","orange","462","sampling-task","36","480684","0.0-5.0-0.28-0.28","69","u1mefgok","low"
"2","10","free","220","10","10","orange-212","orange","446","sampling-task","37","482044","0.0-5.0-0.29-0.29","69","u1mefgok","low"
"2","11","free","220","10","-25","orange-212","orange","438","sampling-task","38","483372","0.0-5.0-0.30-0.30","69","u1mefgok","low"
"2","12","free","220","10","4","orange-212","orange","398","sampling-task","39","484652","0.0-5.0-0.31-0.31","69","u1mefgok","low"
"2","13","free","220","10","28","orange-212","orange","438","sampling-task","40","486316","0.0-5.0-0.32-0.32","69","u1mefgok","low"
"2","14","free","220","10","26","orange-212","orange","446","sampling-task","41","488164","0.0-5.0-0.33-0.33","69","u1mefgok","low"
"2","15","free","220","10","-7","orange-212","orange","478","sampling-task","42","489748","0.0-5.0-0.34-0.34","69","u1mefgok","low"
"2","16","free","220","10","-33","orange-212","orange","454","sampling-task","43","491356","0.0-5.0-0.35-0.35","69","u1mefgok","low"
"2","17","free","220","10","51","orange-212","orange","430","sampling-task","44","492724","0.0-5.0-0.36-0.36","69","u1mefgok","low"
"2","18","free","220","10","10","orange-212","orange","423","sampling-task","45","494052","0.0-5.0-0.37-0.37","69","u1mefgok","low"
"2","19","free","220","10","9","orange-212","orange","430","sampling-task","46","495364","0.0-5.0-0.38-0.38","69","u1mefgok","low"
"2","20","free","220","10","-1","orange-212","orange","399","sampling-task","47","496652","0.0-5.0-0.39-0.39","69","u1mefgok","low"
"2","21","free","220","10","37","orange-212","orange","398","sampling-task","48","497908","0.0-5.0-0.40-0.40","69","u1mefgok","low"
"2","22","free","220","10","17","orange-212","orange","437","sampling-task","49","499228","0.0-5.0-0.41-0.41","69","u1mefgok","low"
"2","23","free","220","10","39","orange-212","orange","455","sampling-task","50","500572","0.0-5.0-0.42-0.42","69","u1mefgok","low"
"2","24","free","220","10","-3","orange-212","orange","429","sampling-task","51","501876","0.0-5.0-0.43-0.43","69","u1mefgok","low"
"2","25","free","220","10","0","orange-212","orange","414","sampling-task","52","503204","0.0-5.0-0.44-0.44","69","u1mefgok","low"
"2","26","free","220","10","12","orange-212","orange","398","sampling-task","53","504492","0.0-5.0-0.45-0.45","69","u1mefgok","low"
"2","27","free","220","10","36","orange-212","orange","406","sampling-task","54","505740","0.0-5.0-0.46-0.46","69","u1mefgok","low"
"2","28","free","220","10","5","orange-212","orange","407","sampling-task","55","506980","0.0-5.0-0.47-0.47","69","u1mefgok","low"
"2","29","free","220","10","10","orange-212","orange","406","sampling-task","56","508260","0.0-5.0-0.48-0.48","69","u1mefgok","low"
"2","30","free","220","10","22","orange-212","orange","414","sampling-task","57","509604","0.0-5.0-0.49-0.49","69","u1mefgok","low"
"2","31","free","220","10","12","orange-212","orange","398","sampling-task","58","511108","0.0-5.0-0.50-0.50","69","u1mefgok","low"
"2","32","free","220","10","1","orange-212","orange","367","sampling-task","59","512492","0.0-5.0-0.51-0.51","69","u1mefgok","low"
"2","33","free","220","10","15","orange-212","orange","438","sampling-task","60","513828","0.0-5.0-0.52-0.52","69","u1mefgok","low"
"2","34","free","220","10","-33","orange-212","orange","438","sampling-task","61","515188","0.0-5.0-0.53-0.53","69","u1mefgok","low"
"2","35","free","220","10","19","orange-212","orange","431","sampling-task","62","516452","0.0-5.0-0.54-0.54","69","u1mefgok","low"
"2","36","free","220","10","19","orange-212","orange","414","sampling-task","63","517804","0.0-5.0-0.55-0.55","69","u1mefgok","low"
"2","37","free","220","10","59","orange-212","orange","391","sampling-task","64","519164","0.0-5.0-0.56-0.56","69","u1mefgok","low"
"2","38","free","220","10","27","orange-212","orange","389","sampling-task","65","521746","0.0-5.0-0.57-0.57","69","u1mefgok","low"
"3","1","fixed","10","52","41","red-201","red","2533","sampling-task","68","564683","0.0-5.0-0.58-0.58","69","u1mefgok","low"
"3","2","fixed","10","52","72","red-201","red","678","sampling-task","69","566451","0.0-5.0-0.59-0.59","69","u1mefgok","low"
"3","3","fixed","10","52","48","red-201","red","534","sampling-task","70","567851","0.0-5.0-0.60-0.60","69","u1mefgok","low"
"3","4","fixed","10","52","58","red-201","red","430","sampling-task","71","569155","0.0-5.0-0.61-0.61","69","u1mefgok","low"
"3","5","fixed","10","52","66","red-201","red","422","sampling-task","72","570419","0.0-5.0-0.62-0.62","69","u1mefgok","low"
"3","6","fixed","10","52","66","red-201","red","446","sampling-task","73","571707","0.0-5.0-0.63-0.63","69","u1mefgok","low"
"3","7","fixed","10","52","49","red-201","red","398","sampling-task","74","572979","0.0-5.0-0.64-0.64","69","u1mefgok","low"
"3","8","fixed","10","52","72","red-201","red","454","sampling-task","75","574394","0.0-5.0-0.65-0.65","69","u1mefgok","low"
"3","9","fixed","10","52","40","red-201","red","430","sampling-task","76","576307","0.0-5.0-0.66-0.66","69","u1mefgok","low"
"3","10","fixed","10","52","49","red-201","red","550","sampling-task","77","577971","0.0-5.0-0.67-0.67","69","u1mefgok","low"
"4","1","free","220","119","115","yellow-187","yellow","2301","sampling-task","80","610418","0.0-5.0-0.68-0.68","69","u1mefgok","low"
"4","2","free","220","119","123","yellow-187","yellow","678","sampling-task","81","612074","0.0-5.0-0.69-0.69","69","u1mefgok","low"
"4","3","free","220","119","98","yellow-187","yellow","478","sampling-task","82","613691","0.0-5.0-0.70-0.70","69","u1mefgok","low"
"4","4","free","220","119","77","yellow-187","yellow","420","sampling-task","83","615010","0.0-5.0-0.71-0.71","69","u1mefgok","low"
"4","5","free","220","119","151","yellow-187","yellow","518","sampling-task","84","617298","0.0-5.0-0.72-0.72","69","u1mefgok","low"
"4","6","free","220","119","93","yellow-187","yellow","532","sampling-task","85","618738","0.0-5.0-0.73-0.73","69","u1mefgok","low"
"4","7","free","220","119","130","yellow-187","yellow","502","sampling-task","86","620122","0.0-5.0-0.74-0.74","69","u1mefgok","low"
"4","8","free","220","119","112","yellow-187","yellow","510","sampling-task","87","621506","0.0-5.0-0.75-0.75","69","u1mefgok","low"
"4","9","free","220","119","69","yellow-187","yellow","438","sampling-task","88","622818","0.0-5.0-0.76-0.76","69","u1mefgok","low"
"4","10","free","220","119","77","yellow-187","yellow","445","sampling-task","89","624322","0.0-5.0-0.77-0.77","69","u1mefgok","low"
"4","11","free","220","119","86","yellow-187","yellow","413","sampling-task","90","625626","0.0-5.0-0.78-0.78","69","u1mefgok","low"
"4","12","free","220","119","111","yellow-187","yellow","437","sampling-task","91","626994","0.0-5.0-0.79-0.79","69","u1mefgok","low"
"4","13","free","220","119","95","yellow-187","yellow","462","sampling-task","92","628401","0.0-5.0-0.80-0.80","69","u1mefgok","low"
"4","14","free","220","119","107","yellow-187","yellow","782","sampling-task","93","630090","0.0-5.0-0.81-0.81","69","u1mefgok","low"
"4","15","free","220","119","89","yellow-187","yellow","678","sampling-task","94","631810","0.0-5.0-0.82-0.82","69","u1mefgok","low"
"4","16","free","220","119","126","yellow-187","yellow","614","sampling-task","95","633330","0.0-5.0-0.83-0.83","69","u1mefgok","low"
"4","17","free","220","119","141","yellow-187","yellow","662","sampling-task","96","634946","0.0-5.0-0.84-0.84","69","u1mefgok","low"
"4","18","free","220","119","130","yellow-187","yellow","510","sampling-task","97","636458","0.0-5.0-0.85-0.85","69","u1mefgok","low"
"4","19","free","220","119","100","yellow-187","yellow","470","sampling-task","98","638194","0.0-5.0-0.86-0.86","69","u1mefgok","low"
"4","20","free","220","119","111","yellow-187","yellow","454","sampling-task","99","639530","0.0-5.0-0.87-0.87","69","u1mefgok","low"
"4","21","free","220","119","147","yellow-187","yellow","470","sampling-task","100","640929","0.0-5.0-0.88-0.88","69","u1mefgok","low"
"4","22","free","220","119","146","yellow-187","yellow","430","sampling-task","101","643201","0.0-5.0-0.89-0.89","69","u1mefgok","low"
"5","1","fixed","5","33","78","green-57","green","2220","sampling-task","104","680297","0.0-5.0-0.90-0.90","69","u1mefgok","low"
"5","2","fixed","5","33","42","green-57","green","1502","sampling-task","105","682881","0.0-5.0-0.91-0.91","69","u1mefgok","low"
"5","3","fixed","5","33","82","green-57","green","550","sampling-task","106","684577","0.0-5.0-0.92-0.92","69","u1mefgok","low"
"5","4","fixed","5","33","27","green-57","green","782","sampling-task","107","686370","0.0-5.0-0.93-0.93","69","u1mefgok","low"
"5","5","fixed","5","33","52","green-57","green","693","sampling-task","108","688114","0.0-5.0-0.94-0.94","69","u1mefgok","low"
"6","1","free","220","75","96","purple-37","purple","2109","sampling-task","111","714033","0.0-5.0-0.95-0.95","69","u1mefgok","low"
"6","2","free","220","75","96","purple-37","purple","581","sampling-task","112","715505","0.0-5.0-0.96-0.96","69","u1mefgok","low"
"6","3","free","220","75","65","purple-37","purple","437","sampling-task","113","717137","0.0-5.0-0.97-0.97","69","u1mefgok","low"
"6","4","free","220","75","90","purple-37","purple","477","sampling-task","114","718657","0.0-5.0-0.98-0.98","69","u1mefgok","low"
"6","5","free","220","75","107","purple-37","purple","437","sampling-task","115","720489","0.0-5.0-0.99-0.99","69","u1mefgok","low"
"6","6","free","220","75","102","purple-37","purple","517","sampling-task","116","721977","0.0-5.0-0.100-0.100","69","u1mefgok","low"
"6","7","free","220","75","85","purple-37","purple","550","sampling-task","117","723425","0.0-5.0-0.101-0.101","69","u1mefgok","low"
"6","8","free","220","75","77","purple-37","purple","501","sampling-task","118","724817","0.0-5.0-0.102-0.102","69","u1mefgok","low"
"6","9","free","220","75","90","purple-37","purple","485","sampling-task","119","726289","0.0-5.0-0.103-0.103","69","u1mefgok","low"
"6","10","free","220","75","50","purple-37","purple","461","sampling-task","120","727633","0.0-5.0-0.104-0.104","69","u1mefgok","low"
"6","11","free","220","75","66","purple-37","purple","453","sampling-task","121","729113","0.0-5.0-0.105-0.105","69","u1mefgok","low"
"6","12","free","220","75","72","purple-37","purple","405","sampling-task","122","730441","0.0-5.0-0.106-0.106","69","u1mefgok","low"
"6","13","free","220","75","69","purple-37","purple","414","sampling-task","123","731793","0.0-5.0-0.107-0.107","69","u1mefgok","low"
"6","14","free","220","75","86","purple-37","purple","414","sampling-task","124","733289","0.0-5.0-0.108-0.108","69","u1mefgok","low"
"6","15","free","220","75","74","purple-37","purple","429","sampling-task","125","734985","0.0-5.0-0.109-0.109","69","u1mefgok","low"
"6","16","free","220","75","97","purple-37","purple","446","sampling-task","126","736385","0.0-5.0-0.110-0.110","69","u1mefgok","low"
"6","17","free","220","75","109","purple-37","purple","396","sampling-task","127","737809","0.0-5.0-0.111-0.111","69","u1mefgok","low"
"6","18","free","220","75","77","purple-37","purple","461","sampling-task","128","739161","0.0-5.0-0.112-0.112","69","u1mefgok","low"
"6","19","free","220","75","106","purple-37","purple","445","sampling-task","129","740617","0.0-5.0-0.113-0.113","69","u1mefgok","low"
"6","20","free","220","75","97","purple-37","purple","406","sampling-task","130","741985","0.0-5.0-0.114-0.114","69","u1mefgok","low"
"6","21","free","220","75","47","purple-37","purple","395","sampling-task","131","743313","0.0-5.0-0.115-0.115","69","u1mefgok","low"
"6","22","free","220","75","78","purple-37","purple","453","sampling-task","132","744649","0.0-5.0-0.116-0.116","69","u1mefgok","low"
"6","23","free","220","75","92","purple-37","purple","421","sampling-task","133","746481","0.0-5.0-0.117-0.117","69","u1mefgok","low"
"6","24","free","220","75","85","purple-37","purple","462","sampling-task","134","747793","0.0-5.0-0.118-0.118","69","u1mefgok","low"
"6","25","free","220","75","60","purple-37","purple","429","sampling-task","135","749201","0.0-5.0-0.119-0.119","69","u1mefgok","low"
"6","26","free","220","75","73","purple-37","purple","461","sampling-task","136","750649","0.0-5.0-0.120-0.120","69","u1mefgok","low"
"6","27","free","220","75","89","purple-37","purple","421","sampling-task","137","752097","0.0-5.0-0.121-0.121","69","u1mefgok","low"
"6","28","free","220","75","70","purple-37","purple","389","sampling-task","138","753353","0.0-5.0-0.122-0.122","69","u1mefgok","low"
"6","29","free","220","75","92","purple-37","purple","469","sampling-task","139","754945","0.0-5.0-0.123-0.123","69","u1mefgok","low"
"6","30","free","220","75","77","purple-37","purple","358","sampling-task","140","756233","0.0-5.0-0.124-0.124","69","u1mefgok","low"
"6","31","free","220","75","104","purple-37","purple","358","sampling-task","141","757705","0.0-5.0-0.125-0.125","69","u1mefgok","low"
"6","32","free","220","75","100","purple-37","purple","372","sampling-task","142","759401","0.0-5.0-0.126-0.126","69","u1mefgok","low"
"6","33","free","220","75","83","purple-37","purple","357","sampling-task","143","760768","0.0-5.0-0.127-0.127","69","u1mefgok","low"
"6","34","free","220","75","103","purple-37","purple","429","sampling-task","144","762672","0.0-5.0-0.128-0.128","69","u1mefgok","low"
