"round_number","sample_number","sampling_type","nSamples","mean","feedback","stimulus","stimulus_colour","rt","trial_type","trial_index","time_elapsed","internal_node_id","participant","randomID","condition"
"1","1","fixed","10","51","45","purple-178","purple","7230","sampling-task","6","318111","0.0-5.0-0.0-0.0","91","y8hbj0c0","low"
"1","2","fixed","10","51","38","purple-178","purple","1870","sampling-task","7","325430","0.0-5.0-0.1-0.1","91","y8hbj0c0","low"
"1","3","fixed","10","51","42","purple-178","purple","870","sampling-task","8","328974","0.0-5.0-0.2-0.2","91","y8hbj0c0","low"
"1","4","fixed","10","51","51","purple-178","purple","1382","sampling-task","9","332286","0.0-5.0-0.3-0.3","91","y8hbj0c0","low"
"1","5","fixed","10","51","63","purple-178","purple","974","sampling-task","10","335078","0.0-5.0-0.4-0.4","91","y8hbj0c0","low"
"1","6","fixed","10","51","72","purple-178","purple","934","sampling-task","11","337678","0.0-5.0-0.5-0.5","91","y8hbj0c0","low"
"1","7","fixed","10","51","63","purple-178","purple","1198","sampling-task","12","340318","0.0-5.0-0.6-0.6","91","y8hbj0c0","low"
"1","8","fixed","10","51","75","purple-178","purple","1134","sampling-task","13","343078","0.0-5.0-0.7-0.7","91","y8hbj0c0","low"
"1","9","fixed","10","51","35","purple-178","purple","1101","sampling-task","14","345902","0.0-5.0-0.8-0.8","91","y8hbj0c0","low"
"1","10","fixed","10","51","53","purple-178","purple","766","sampling-task","15","347822","0.0-5.0-0.9-0.9","91","y8hbj0c0","low"
"2","1","free","220","119","154","red-134","red","4852","sampling-task","18","413387","0.0-5.0-0.10-0.10","91","y8hbj0c0","low"
"2","2","free","220","119","114","red-134","red","830","sampling-task","19","415363","0.0-5.0-0.11-0.11","91","y8hbj0c0","low"
"2","3","free","220","119","112","red-134","red","783","sampling-task","20","417235","0.0-5.0-0.12-0.12","91","y8hbj0c0","low"
"2","4","free","220","119","112","red-134","red","566","sampling-task","21","418883","0.0-5.0-0.13-0.13","91","y8hbj0c0","low"
"2","5","free","220","119","128","red-134","red","797","sampling-task","22","420619","0.0-5.0-0.14-0.14","91","y8hbj0c0","low"
"2","6","free","220","119","96","red-134","red","591","sampling-task","23","422187","0.0-5.0-0.15-0.15","91","y8hbj0c0","low"
"2","7","free","220","119","147","red-134","red","551","sampling-task","24","424003","0.0-5.0-0.16-0.16","91","y8hbj0c0","low"
"2","8","free","220","119","121","red-134","red","574","sampling-task","25","425499","0.0-5.0-0.17-0.17","91","y8hbj0c0","low"
"2","9","free","220","119","139","red-134","red","502","sampling-task","26","427409","0.0-5.0-0.18-0.18","91","y8hbj0c0","low"
"2","10","free","220","119","84","red-134","red","558","sampling-task","27","428929","0.0-5.0-0.19-0.19","91","y8hbj0c0","low"
"2","11","free","220","119","128","red-134","red","510","sampling-task","28","430609","0.0-5.0-0.20-0.20","91","y8hbj0c0","low"
"2","12","free","220","119","127","red-134","red","518","sampling-task","29","432433","0.0-5.0-0.21-0.21","91","y8hbj0c0","low"
"2","13","free","220","119","129","red-134","red","478","sampling-task","30","433969","0.0-5.0-0.22-0.22","91","y8hbj0c0","low"
"2","14","free","220","119","109","red-134","red","566","sampling-task","31","435433","0.0-5.0-0.23-0.23","91","y8hbj0c0","low"
"2","15","free","220","119","118","red-134","red","598","sampling-task","32","436985","0.0-5.0-0.24-0.24","91","y8hbj0c0","low"
"2","16","free","220","119","127","red-134","red","582","sampling-task","33","438537","0.0-5.0-0.25-0.25","91","y8hbj0c0","low"
"2","17","free","220","119","103","red-134","red","806","sampling-task","34","440305","0.0-5.0-0.26-0.26","91","y8hbj0c0","low"
"2","18","free","220","119","110","red-134","red","550","sampling-task","35","441801","0.0-5.0-0.27-0.27","91","y8hbj0c0","low"
"2","19","free","220","119","130","red-134","red","662","sampling-task","36","443489","0.0-5.0-0.28-0.28","91","y8hbj0c0","low"
"2","20","free","220","119","71","red-134","red","950","sampling-task","37","446273","0.0-5.0-0.29-0.29","91","y8hbj0c0","low"
"3","1","fixed","20","97","108","green-111","green","3140","sampling-task","40","478513","0.0-5.0-0.30-0.30","91","y8hbj0c0","low"
"3","2","fixed","20","97","109","green-111","green","654","sampling-task","41","480401","0.0-5.0-0.31-0.31","91","y8hbj0c0","low"
"3","3","fixed","20","97","86","green-111","green","846","sampling-task","42","482456","0.0-5.0-0.32-0.32","91","y8hbj0c0","low"
"3","4","fixed","20","97","78","green-111","green","622","sampling-task","43","484040","0.0-5.0-0.33-0.33","91","y8hbj0c0","low"
"3","5","fixed","20","97","93","green-111","green","598","sampling-task","44","485585","0.0-5.0-0.34-0.34","91","y8hbj0c0","low"
"3","6","fixed","20","97","103","green-111","green","558","sampling-task","45","487297","0.0-5.0-0.35-0.35","91","y8hbj0c0","low"
"3","7","fixed","20","97","96","green-111","green","484","sampling-task","46","488670","0.0-5.0-0.36-0.36","91","y8hbj0c0","low"
"3","8","fixed","20","97","66","green-111","green","510","sampling-task","47","490135","0.0-5.0-0.37-0.37","91","y8hbj0c0","low"
"3","9","fixed","20","97","132","green-111","green","557","sampling-task","48","491615","0.0-5.0-0.38-0.38","91","y8hbj0c0","low"
"3","10","fixed","20","97","117","green-111","green","590","sampling-task","49","493567","0.0-5.0-0.39-0.39","91","y8hbj0c0","low"
"3","11","fixed","20","97","115","green-111","green","558","sampling-task","50","495087","0.0-5.0-0.40-0.40","91","y8hbj0c0","low"
"3","12","fixed","20","97","80","green-111","green","566","sampling-task","51","496926","0.0-5.0-0.41-0.41","91","y8hbj0c0","low"
"3","13","fixed","20","97","99","green-111","green","598","sampling-task","52","498455","0.0-5.0-0.42-0.42","91","y8hbj0c0","low"
"3","14","fixed","20","97","96","green-111","green","534","sampling-task","53","500071","0.0-5.0-0.43-0.43","91","y8hbj0c0","low"
"3","15","fixed","20","97","99","green-111","green","598","sampling-task","54","501567","0.0-5.0-0.44-0.44","91","y8hbj0c0","low"
"3","16","fixed","20","97","118","green-111","green","566","sampling-task","55","503047","0.0-5.0-0.45-0.45","91","y8hbj0c0","low"
"3","17","fixed","20","97","120","green-111","green","630","sampling-task","56","504927","0.0-5.0-0.46-0.46","91","y8hbj0c0","low"
"3","18","fixed","20","97","97","green-111","green","590","sampling-task","57","506431","0.0-5.0-0.47-0.47","91","y8hbj0c0","low"
"3","19","fixed","20","97","117","green-111","green","566","sampling-task","58","507903","0.0-5.0-0.48-0.48","91","y8hbj0c0","low"
"3","20","fixed","20","97","68","green-111","green","702","sampling-task","59","510311","0.0-5.0-0.49-0.49","91","y8hbj0c0","low"
"4","1","free","220","37","77","orange-207","orange","1396","sampling-task","62","536087","0.0-5.0-0.50-0.50","91","y8hbj0c0","low"
"4","2","free","220","37","65","orange-207","orange","478","sampling-task","63","537678","0.0-5.0-0.51-0.51","91","y8hbj0c0","low"
"4","3","free","220","37","19","orange-207","orange","894","sampling-task","64","539551","0.0-5.0-0.52-0.52","91","y8hbj0c0","low"
"4","4","free","220","37","29","orange-207","orange","470","sampling-task","65","540950","0.0-5.0-0.53-0.53","91","y8hbj0c0","low"
"4","5","free","220","37","68","orange-207","orange","478","sampling-task","66","542311","0.0-5.0-0.54-0.54","91","y8hbj0c0","low"
"4","6","free","220","37","17","orange-207","orange","534","sampling-task","67","543750","0.0-5.0-0.55-0.55","91","y8hbj0c0","low"
"4","7","free","220","37","3","orange-207","orange","550","sampling-task","68","545255","0.0-5.0-0.56-0.56","91","y8hbj0c0","low"
"4","8","free","220","37","6","orange-207","orange","494","sampling-task","69","546695","0.0-5.0-0.57-0.57","91","y8hbj0c0","low"
"4","9","free","220","37","13","orange-207","orange","494","sampling-task","70","548084","0.0-5.0-0.58-0.58","91","y8hbj0c0","low"
"4","10","free","220","37","35","orange-207","orange","486","sampling-task","71","549500","0.0-5.0-0.59-0.59","91","y8hbj0c0","low"
"4","11","free","220","37","26","orange-207","orange","526","sampling-task","72","550916","0.0-5.0-0.60-0.60","91","y8hbj0c0","low"
"4","12","free","220","37","26","orange-207","orange","533","sampling-task","73","552380","0.0-5.0-0.61-0.61","91","y8hbj0c0","low"
"4","13","free","220","37","62","orange-207","orange","486","sampling-task","74","553804","0.0-5.0-0.62-0.62","91","y8hbj0c0","low"
"4","14","free","220","37","21","orange-207","orange","598","sampling-task","75","555300","0.0-5.0-0.63-0.63","91","y8hbj0c0","low"
"4","15","free","220","37","31","orange-207","orange","510","sampling-task","76","557492","0.0-5.0-0.64-0.64","91","y8hbj0c0","low"
"4","16","free","220","37","58","orange-207","orange","406","sampling-task","77","558820","0.0-5.0-0.65-0.65","91","y8hbj0c0","low"
"4","17","free","220","37","49","orange-207","orange","494","sampling-task","78","560284","0.0-5.0-0.66-0.66","91","y8hbj0c0","low"
"4","18","free","220","37","1","orange-207","orange","462","sampling-task","79","561676","0.0-5.0-0.67-0.67","91","y8hbj0c0","low"
"4","19","free","220","37","38","orange-207","orange","494","sampling-task","80","563084","0.0-5.0-0.68-0.68","91","y8hbj0c0","low"
"4","20","free","220","37","50","orange-207","orange","430","sampling-task","81","564700","0.0-5.0-0.69-0.69","91","y8hbj0c0","low"
"4","21","free","220","37","26","orange-207","orange","470","sampling-task","82","566140","0.0-5.0-0.70-0.70","91","y8hbj0c0","low"
"4","22","free","220","37","21","orange-207","orange","438","sampling-task","83","567492","0.0-5.0-0.71-0.71","91","y8hbj0c0","low"
"4","23","free","220","37","51","orange-207","orange","478","sampling-task","84","568931","0.0-5.0-0.72-0.72","91","y8hbj0c0","low"
"4","24","free","220","37","67","orange-207","orange","502","sampling-task","85","570332","0.0-5.0-0.73-0.73","91","y8hbj0c0","low"
"4","25","free","220","37","45","orange-207","orange","430","sampling-task","86","571868","0.0-5.0-0.74-0.74","91","y8hbj0c0","low"
"4","26","free","220","37","62","orange-207","orange","421","sampling-task","87","573324","0.0-5.0-0.75-0.75","91","y8hbj0c0","low"
"4","27","free","220","37","62","orange-207","orange","437","sampling-task","88","574676","0.0-5.0-0.76-0.76","91","y8hbj0c0","low"
"4","28","free","220","37","53","orange-207","orange","526","sampling-task","89","576092","0.0-5.0-0.77-0.77","91","y8hbj0c0","low"
"4","29","free","220","37","30","orange-207","orange","501","sampling-task","90","577676","0.0-5.0-0.78-0.78","91","y8hbj0c0","low"
"4","30","free","220","37","44","orange-207","orange","533","sampling-task","91","579468","0.0-5.0-0.79-0.79","91","y8hbj0c0","low"
"4","31","free","220","37","12","orange-207","orange","494","sampling-task","92","581364","0.0-5.0-0.80-0.80","91","y8hbj0c0","low"
"5","1","fixed","5","15","37","blue-53","blue","3644","sampling-task","95","603444","0.0-5.0-0.81-0.81","91","y8hbj0c0","low"
"5","2","fixed","5","15","11","blue-53","blue","750","sampling-task","96","605140","0.0-5.0-0.82-0.82","91","y8hbj0c0","low"
"5","3","fixed","5","15","18","blue-53","blue","694","sampling-task","97","606867","0.0-5.0-0.83-0.83","91","y8hbj0c0","low"
"5","4","fixed","5","15","18","blue-53","blue","700","sampling-task","98","608457","0.0-5.0-0.84-0.84","91","y8hbj0c0","low"
"5","5","fixed","5","15","12","blue-53","blue","550","sampling-task","99","609913","0.0-5.0-0.85-0.85","91","y8hbj0c0","low"
"6","1","free","220","75","84","yellow-18","yellow","2884","sampling-task","102","630673","0.0-5.0-0.86-0.86","91","y8hbj0c0","low"
"6","2","free","220","75","56","yellow-18","yellow","422","sampling-task","103","632033","0.0-5.0-0.87-0.87","91","y8hbj0c0","low"
"6","3","free","220","75","43","yellow-18","yellow","414","sampling-task","104","633537","0.0-5.0-0.88-0.88","91","y8hbj0c0","low"
"6","4","free","220","75","97","yellow-18","yellow","510","sampling-task","105","634953","0.0-5.0-0.89-0.89","91","y8hbj0c0","low"
"6","5","free","220","75","70","yellow-18","yellow","582","sampling-task","106","638785","0.0-5.0-0.90-0.90","91","y8hbj0c0","low"
"6","6","free","220","75","82","yellow-18","yellow","478","sampling-task","107","640233","0.0-5.0-0.91-0.91","91","y8hbj0c0","low"
"6","7","free","220","75","59","yellow-18","yellow","470","sampling-task","108","642033","0.0-5.0-0.92-0.92","91","y8hbj0c0","low"
"6","8","free","220","75","56","yellow-18","yellow","534","sampling-task","109","643697","0.0-5.0-0.93-0.93","91","y8hbj0c0","low"
"6","9","free","220","75","102","yellow-18","yellow","566","sampling-task","110","645201","0.0-5.0-0.94-0.94","91","y8hbj0c0","low"
"6","10","free","220","75","82","yellow-18","yellow","510","sampling-task","111","646697","0.0-5.0-0.95-0.95","91","y8hbj0c0","low"
"6","11","free","220","75","100","yellow-18","yellow","598","sampling-task","112","648177","0.0-5.0-0.96-0.96","91","y8hbj0c0","low"
"6","12","free","220","75","55","yellow-18","yellow","574","sampling-task","113","649649","0.0-5.0-0.97-0.97","91","y8hbj0c0","low"
"6","13","free","220","75","44","yellow-18","yellow","446","sampling-task","114","651113","0.0-5.0-0.98-0.98","91","y8hbj0c0","low"
"6","14","free","220","75","61","yellow-18","yellow","510","sampling-task","115","652537","0.0-5.0-0.99-0.99","91","y8hbj0c0","low"
"6","15","free","220","75","87","yellow-18","yellow","414","sampling-task","116","654409","0.0-5.0-0.100-0.100","91","y8hbj0c0","low"
"6","16","free","220","75","64","yellow-18","yellow","430","sampling-task","117","656113","0.0-5.0-0.101-0.101","91","y8hbj0c0","low"
"6","17","free","220","75","38","yellow-18","yellow","478","sampling-task","118","657569","0.0-5.0-0.102-0.102","91","y8hbj0c0","low"
"6","18","free","220","75","73","yellow-18","yellow","646","sampling-task","119","659945","0.0-5.0-0.103-0.103","91","y8hbj0c0","low"
"6","19","free","220","75","85","yellow-18","yellow","478","sampling-task","120","661649","0.0-5.0-0.104-0.104","91","y8hbj0c0","low"
"6","20","free","220","75","33","yellow-18","yellow","510","sampling-task","121","663130","0.0-5.0-0.105-0.105","91","y8hbj0c0","low"
"6","21","free","220","75","79","yellow-18","yellow","494","sampling-task","122","665289","0.0-5.0-0.106-0.106","91","y8hbj0c0","low"
