"round_number","sample_number","sampling_type","nSamples","mean","feedback","stimulus","stimulus_colour","rt","trial_type","trial_index","time_elapsed","internal_node_id","participant","randomID","condition"
"1","1","fixed","10","116","138","red-90","red","8274","sampling-task","6","436105","0.0-5.0-0.0-0.0","107","zwpjz049","high"
"1","2","fixed","10","116","132","red-93","red","2150","sampling-task","7","446712","0.0-5.0-0.1-0.1","107","zwpjz049","high"
"1","3","fixed","10","116","110","red-48","red","3054","sampling-task","8","459831","0.0-5.0-0.2-0.2","107","zwpjz049","high"
"1","4","fixed","10","116","114","red-2","red","7471","sampling-task","9","476055","0.0-5.0-0.3-0.3","107","zwpjz049","high"
"1","5","fixed","10","116","107","red-67","red","11014","sampling-task","10","489295","0.0-5.0-0.4-0.4","107","zwpjz049","high"
"1","6","fixed","10","116","122","red-64","red","4903","sampling-task","11","497111","0.0-5.0-0.5-0.5","107","zwpjz049","high"
"1","7","fixed","10","116","100","red-172","red","3438","sampling-task","12","502871","0.0-5.0-0.6-0.6","107","zwpjz049","high"
"1","8","fixed","10","116","152","red-153","red","2526","sampling-task","13","508551","0.0-5.0-0.7-0.7","107","zwpjz049","high"
"1","9","fixed","10","116","85","red-45","red","1391","sampling-task","14","512461","0.0-5.0-0.8-0.8","107","zwpjz049","high"
"1","10","fixed","10","116","133","red-164","red","3542","sampling-task","15","519293","0.0-5.0-0.9-0.9","107","zwpjz049","high"
"2","1","free","220","55","45","orange-142","orange","5708","sampling-task","18","586861","0.0-5.0-0.10-0.10","107","zwpjz049","high"
"2","2","free","220","55","71","orange-132","orange","2278","sampling-task","19","593933","0.0-5.0-0.11-0.11","107","zwpjz049","high"
"2","3","free","220","55","78","orange-194","orange","1478","sampling-task","20","597573","0.0-5.0-0.12-0.12","107","zwpjz049","high"
"2","4","free","220","55","-11","orange-146","orange","2454","sampling-task","21","602613","0.0-5.0-0.13-0.13","107","zwpjz049","high"
"2","5","free","220","55","54","orange-54","orange","1086","sampling-task","22","605405","0.0-5.0-0.14-0.14","107","zwpjz049","high"
"2","6","free","220","55","41","orange-15","orange","934","sampling-task","23","608901","0.0-5.0-0.15-0.15","107","zwpjz049","high"
"2","7","free","220","55","69","orange-78","orange","3206","sampling-task","24","614077","0.0-5.0-0.16-0.16","107","zwpjz049","high"
"2","8","free","220","55","38","orange-12","orange","2086","sampling-task","25","618101","0.0-5.0-0.17-0.17","107","zwpjz049","high"
"2","9","free","220","55","65","orange-94","orange","1165","sampling-task","26","621029","0.0-5.0-0.18-0.18","107","zwpjz049","high"
"2","10","free","220","55","47","orange-155","orange","3950","sampling-task","27","626725","0.0-5.0-0.19-0.19","107","zwpjz049","high"
"2","11","free","220","55","35","orange-190","orange","1790","sampling-task","28","630269","0.0-5.0-0.20-0.20","107","zwpjz049","high"
"2","12","free","220","55","56","orange-124","orange","2340","sampling-task","29","634260","0.0-5.0-0.21-0.21","107","zwpjz049","high"
"2","13","free","220","55","50","orange-65","orange","10326","sampling-task","30","646132","0.0-5.0-0.22-0.22","107","zwpjz049","high"
"2","14","free","220","55","56","orange-174","orange","1790","sampling-task","31","649859","0.0-5.0-0.23-0.23","107","zwpjz049","high"
"2","15","free","220","55","60","orange-12","orange","2167","sampling-task","32","660771","0.0-5.0-0.24-0.24","107","zwpjz049","high"
"2","16","free","220","55","53","orange-130","orange","2246","sampling-task","33","664844","0.0-5.0-0.25-0.25","107","zwpjz049","high"
"2","17","free","220","55","102","orange-210","orange","1022","sampling-task","34","669732","0.0-5.0-0.26-0.26","107","zwpjz049","high"
"2","18","free","220","55","76","orange-54","orange","838","sampling-task","35","672068","0.0-5.0-0.27-0.27","107","zwpjz049","high"
"2","19","free","220","55","41","orange-8","orange","502","sampling-task","36","674619","0.0-5.0-0.28-0.28","107","zwpjz049","high"
"2","20","free","220","55","51","orange-131","orange","1478","sampling-task","37","678892","0.0-5.0-0.29-0.29","107","zwpjz049","high"
"2","21","free","220","55","11","orange-77","orange","1270","sampling-task","38","687276","0.0-5.0-0.30-0.30","107","zwpjz049","high"
"2","22","free","220","55","32","orange-109","orange","990","sampling-task","39","689620","0.0-5.0-0.31-0.31","107","zwpjz049","high"
"2","23","free","220","55","33","orange-15","orange","423","sampling-task","40","691620","0.0-5.0-0.32-0.32","107","zwpjz049","high"
"2","24","free","220","55","80","orange-173","orange","782","sampling-task","41","696594","0.0-5.0-0.33-0.33","107","zwpjz049","high"
"2","25","free","220","55","1","orange-52","orange","750","sampling-task","42","698882","0.0-5.0-0.34-0.34","107","zwpjz049","high"
"2","26","free","220","55","64","orange-166","orange","1014","sampling-task","43","701634","0.0-5.0-0.35-0.35","107","zwpjz049","high"
"2","27","free","220","55","30","orange-207","orange","1102","sampling-task","44","704706","0.0-5.0-0.36-0.36","107","zwpjz049","high"
"2","28","free","220","55","62","orange-26","orange","966","sampling-task","45","708282","0.0-5.0-0.37-0.37","107","zwpjz049","high"
"2","29","free","220","55","51","orange-123","orange","1029","sampling-task","46","711234","0.0-5.0-0.38-0.38","107","zwpjz049","high"
"2","30","free","220","55","58","orange-199","orange","1470","sampling-task","47","714114","0.0-5.0-0.39-0.39","107","zwpjz049","high"
"2","31","free","220","55","59","orange-186","orange","1357","sampling-task","48","718586","0.0-5.0-0.40-0.40","107","zwpjz049","high"
"2","32","free","220","55","78","orange-160","orange","630","sampling-task","49","721146","0.0-5.0-0.41-0.41","107","zwpjz049","high"
"2","33","free","220","55","50","orange-45","orange","1046","sampling-task","50","725122","0.0-5.0-0.42-0.42","107","zwpjz049","high"
"2","34","free","220","55","35","orange-54","orange","1502","sampling-task","51","730578","0.0-5.0-0.43-0.43","107","zwpjz049","high"
"2","35","free","220","55","82","orange-73","orange","998","sampling-task","52","732922","0.0-5.0-0.44-0.44","107","zwpjz049","high"
"2","36","free","220","55","28","orange-139","orange","542","sampling-task","53","734602","0.0-5.0-0.45-0.45","107","zwpjz049","high"
"2","37","free","220","55","51","orange-219","orange","558","sampling-task","54","736674","0.0-5.0-0.46-0.46","107","zwpjz049","high"
"2","38","free","220","55","66","orange-28","orange","462","sampling-task","55","738482","0.0-5.0-0.47-0.47","107","zwpjz049","high"
"2","39","free","220","55","59","orange-90","orange","534","sampling-task","56","740306","0.0-5.0-0.48-0.48","107","zwpjz049","high"
"2","40","free","220","55","58","orange-171","orange","1622","sampling-task","57","744042","0.0-5.0-0.49-0.49","107","zwpjz049","high"
"2","41","free","220","55","36","orange-16","orange","966","sampling-task","58","746450","0.0-5.0-0.50-0.50","107","zwpjz049","high"
"2","42","free","220","55","52","orange-212","orange","1086","sampling-task","59","748474","0.0-5.0-0.51-0.51","107","zwpjz049","high"
"2","43","free","220","55","50","orange-10","orange","686","sampling-task","60","751466","0.0-5.0-0.52-0.52","107","zwpjz049","high"
"2","44","free","220","55","88","orange-219","orange","494","sampling-task","61","753826","0.0-5.0-0.53-0.53","107","zwpjz049","high"
"2","45","free","220","55","53","orange-119","orange","662","sampling-task","62","756713","0.0-5.0-0.54-0.54","107","zwpjz049","high"
"2","46","free","220","55","38","orange-129","orange","967","sampling-task","63","760713","0.0-5.0-0.55-0.55","107","zwpjz049","high"
"2","47","free","220","55","75","orange-139","orange","670","sampling-task","64","762657","0.0-5.0-0.56-0.56","107","zwpjz049","high"
"2","48","free","220","55","52","orange-32","orange","694","sampling-task","65","764457","0.0-5.0-0.57-0.57","107","zwpjz049","high"
"2","49","free","220","55","59","orange-196","orange","743","sampling-task","66","766585","0.0-5.0-0.58-0.58","107","zwpjz049","high"
"2","50","free","220","55","50","orange-97","orange","678","sampling-task","67","768849","0.0-5.0-0.59-0.59","107","zwpjz049","high"
"2","51","free","220","55","70","orange-119","orange","2950","sampling-task","68","773537","0.0-5.0-0.60-0.60","107","zwpjz049","high"
"2","52","free","220","55","49","orange-146","orange","1398","sampling-task","69","779257","0.0-5.0-0.61-0.61","107","zwpjz049","high"
"2","53","free","220","55","31","orange-194","orange","726","sampling-task","70","783626","0.0-5.0-0.62-0.62","107","zwpjz049","high"
"2","54","free","220","55","58","orange-81","orange","1894","sampling-task","71","786993","0.0-5.0-0.63-0.63","107","zwpjz049","high"
"2","55","free","220","55","44","orange-218","orange","1007","sampling-task","72","789513","0.0-5.0-0.64-0.64","107","zwpjz049","high"
"2","56","free","220","55","56","orange-175","orange","662","sampling-task","73","792761","0.0-5.0-0.65-0.65","107","zwpjz049","high"
"2","57","free","220","55","75","orange-149","orange","751","sampling-task","74","795209","0.0-5.0-0.66-0.66","107","zwpjz049","high"
"2","58","free","220","55","59","orange-89","orange","582","sampling-task","75","798562","0.0-5.0-0.67-0.67","107","zwpjz049","high"
"2","59","free","220","55","45","orange-94","orange","1318","sampling-task","76","803921","0.0-5.0-0.68-0.68","107","zwpjz049","high"
"2","60","free","220","55","32","orange-60","orange","726","sampling-task","77","809433","0.0-5.0-0.69-0.69","107","zwpjz049","high"
"2","61","free","220","55","52","orange-150","orange","782","sampling-task","78","812625","0.0-5.0-0.70-0.70","107","zwpjz049","high"
"2","62","free","220","55","92","orange-95","orange","797","sampling-task","79","818200","0.0-5.0-0.71-0.71","107","zwpjz049","high"
"2","63","free","220","55","30","orange-6","orange","1246","sampling-task","80","823608","0.0-5.0-0.72-0.72","107","zwpjz049","high"
"3","1","fixed","5","31","38","yellow-43","yellow","7252","sampling-task","83","890447","0.0-5.0-0.73-0.73","107","zwpjz049","high"
"3","2","fixed","5","31","20","yellow-38","yellow","1733","sampling-task","84","900343","0.0-5.0-0.74-0.74","107","zwpjz049","high"
"3","3","fixed","5","31","11","yellow-202","yellow","877","sampling-task","85","903287","0.0-5.0-0.75-0.75","107","zwpjz049","high"
"3","4","fixed","5","31","7","yellow-185","yellow","910","sampling-task","86","905727","0.0-5.0-0.76-0.76","107","zwpjz049","high"
"3","5","fixed","5","31","38","yellow-130","yellow","774","sampling-task","87","909415","0.0-5.0-0.77-0.77","107","zwpjz049","high"
"4","1","free","220","72","71","green-48","green","4165","sampling-task","90","955301","0.0-5.0-0.78-0.78","107","zwpjz049","high"
"4","2","free","220","72","116","green-204","green","1918","sampling-task","91","960605","0.0-5.0-0.79-0.79","107","zwpjz049","high"
"4","3","free","220","72","27","green-111","green","902","sampling-task","92","963094","0.0-5.0-0.80-0.80","107","zwpjz049","high"
"4","4","free","220","72","68","green-36","green","806","sampling-task","93","965733","0.0-5.0-0.81-0.81","107","zwpjz049","high"
"4","5","free","220","72","92","green-93","green","822","sampling-task","94","970877","0.0-5.0-0.82-0.82","107","zwpjz049","high"
"4","6","free","220","72","70","green-125","green","942","sampling-task","95","973478","0.0-5.0-0.83-0.83","107","zwpjz049","high"
"4","7","free","220","72","84","green-61","green","646","sampling-task","96","975717","0.0-5.0-0.84-0.84","107","zwpjz049","high"
"4","8","free","220","72","36","green-134","green","734","sampling-task","97","979149","0.0-5.0-0.85-0.85","107","zwpjz049","high"
"4","9","free","220","72","31","green-187","green","734","sampling-task","98","981181","0.0-5.0-0.86-0.86","107","zwpjz049","high"
"4","10","free","220","72","42","green-4","green","854","sampling-task","99","984326","0.0-5.0-0.87-0.87","107","zwpjz049","high"
"4","11","free","220","72","105","green-210","green","1958","sampling-task","100","989701","0.0-5.0-0.88-0.88","107","zwpjz049","high"
"4","12","free","220","72","45","green-49","green","934","sampling-task","101","991893","0.0-5.0-0.89-0.89","107","zwpjz049","high"
"4","13","free","220","72","78","green-69","green","886","sampling-task","102","994390","0.0-5.0-0.90-0.90","107","zwpjz049","high"
"4","14","free","220","72","42","green-24","green","886","sampling-task","103","997125","0.0-5.0-0.91-0.91","107","zwpjz049","high"
"4","15","free","220","72","46","green-133","green","1454","sampling-task","104","1000916","0.0-5.0-0.92-0.92","107","zwpjz049","high"
"4","16","free","220","72","82","green-78","green","1669","sampling-task","105","1004820","0.0-5.0-0.93-0.93","107","zwpjz049","high"
"4","17","free","220","72","36","green-147","green","854","sampling-task","106","1007540","0.0-5.0-0.94-0.94","107","zwpjz049","high"
"4","18","free","220","72","93","green-201","green","582","sampling-task","107","1009700","0.0-5.0-0.95-0.95","107","zwpjz049","high"
"4","19","free","220","72","61","green-205","green","701","sampling-task","108","1012028","0.0-5.0-0.96-0.96","107","zwpjz049","high"
"4","20","free","220","72","60","green-9","green","846","sampling-task","109","1014212","0.0-5.0-0.97-0.97","107","zwpjz049","high"
"4","21","free","220","72","48","green-51","green","814","sampling-task","110","1016156","0.0-5.0-0.98-0.98","107","zwpjz049","high"
"4","22","free","220","72","55","green-149","green","527","sampling-task","111","1018004","0.0-5.0-0.99-0.99","107","zwpjz049","high"
"4","23","free","220","72","96","green-19","green","878","sampling-task","112","1022924","0.0-5.0-0.100-0.100","107","zwpjz049","high"
"4","24","free","220","72","90","green-188","green","766","sampling-task","113","1026620","0.0-5.0-0.101-0.101","107","zwpjz049","high"
"4","25","free","220","72","73","green-76","green","661","sampling-task","114","1028708","0.0-5.0-0.102-0.102","107","zwpjz049","high"
"4","26","free","220","72","64","green-134","green","542","sampling-task","115","1030452","0.0-5.0-0.103-0.103","107","zwpjz049","high"
"4","27","free","220","72","72","green-34","green","822","sampling-task","116","1033276","0.0-5.0-0.104-0.104","107","zwpjz049","high"
"4","28","free","220","72","36","green-122","green","758","sampling-task","117","1035892","0.0-5.0-0.105-0.105","107","zwpjz049","high"
"4","29","free","220","72","53","green-99","green","605","sampling-task","118","1038044","0.0-5.0-0.106-0.106","107","zwpjz049","high"
"4","30","free","220","72","86","green-34","green","701","sampling-task","119","1040060","0.0-5.0-0.107-0.107","107","zwpjz049","high"
"4","31","free","220","72","83","green-193","green","638","sampling-task","120","1042124","0.0-5.0-0.108-0.108","107","zwpjz049","high"
"4","32","free","220","72","73","green-213","green","645","sampling-task","121","1044268","0.0-5.0-0.109-0.109","107","zwpjz049","high"
"4","33","free","220","72","55","green-46","green","501","sampling-task","122","1047244","0.0-5.0-0.110-0.110","107","zwpjz049","high"
"4","34","free","220","72","90","green-10","green","750","sampling-task","123","1050076","0.0-5.0-0.111-0.111","107","zwpjz049","high"
"4","35","free","220","72","61","green-30","green","797","sampling-task","124","1054620","0.0-5.0-0.112-0.112","107","zwpjz049","high"
"4","36","free","220","72","68","green-95","green","1246","sampling-task","125","1057844","0.0-5.0-0.113-0.113","107","zwpjz049","high"
"4","37","free","220","72","55","green-86","green","900","sampling-task","126","1061067","0.0-5.0-0.114-0.114","107","zwpjz049","high"
"4","38","free","220","72","78","green-135","green","557","sampling-task","127","1063651","0.0-5.0-0.115-0.115","107","zwpjz049","high"
"4","39","free","220","72","48","green-97","green","1813","sampling-task","128","1067171","0.0-5.0-0.116-0.116","107","zwpjz049","high"
"4","40","free","220","72","79","green-7","green","2110","sampling-task","129","1070907","0.0-5.0-0.117-0.117","107","zwpjz049","high"
"4","41","free","220","72","97","green-79","green","493","sampling-task","130","1073283","0.0-5.0-0.118-0.118","107","zwpjz049","high"
"4","42","free","220","72","53","green-40","green","454","sampling-task","131","1075003","0.0-5.0-0.119-0.119","107","zwpjz049","high"
"4","43","free","220","72","89","green-189","green","693","sampling-task","132","1076827","0.0-5.0-0.120-0.120","107","zwpjz049","high"
"4","44","free","220","72","53","green-17","green","830","sampling-task","133","1079411","0.0-5.0-0.121-0.121","107","zwpjz049","high"
"4","45","free","220","72","52","green-192","green","446","sampling-task","134","1081363","0.0-5.0-0.122-0.122","107","zwpjz049","high"
"4","46","free","220","72","107","green-113","green","3525","sampling-task","135","1086187","0.0-5.0-0.123-0.123","107","zwpjz049","high"
"4","47","free","220","72","81","green-32","green","742","sampling-task","136","1087994","0.0-5.0-0.124-0.124","107","zwpjz049","high"
"4","48","free","220","72","53","green-68","green","678","sampling-task","137","1089667","0.0-5.0-0.125-0.125","107","zwpjz049","high"
"4","49","free","220","72","73","green-195","green","542","sampling-task","138","1091571","0.0-5.0-0.126-0.126","107","zwpjz049","high"
"4","50","free","220","72","53","green-51","green","677","sampling-task","139","1093355","0.0-5.0-0.127-0.127","107","zwpjz049","high"
"4","51","free","220","72","53","green-81","green","613","sampling-task","140","1095091","0.0-5.0-0.128-0.128","107","zwpjz049","high"
"4","52","free","220","72","66","green-80","green","661","sampling-task","141","1097931","0.0-5.0-0.129-0.129","107","zwpjz049","high"
"4","53","free","220","72","85","green-181","green","741","sampling-task","142","1099843","0.0-5.0-0.130-0.130","107","zwpjz049","high"
"4","54","free","220","72","49","green-87","green","734","sampling-task","143","1102331","0.0-5.0-0.131-0.131","107","zwpjz049","high"
"4","55","free","220","72","49","green-13","green","1286","sampling-task","144","1105179","0.0-5.0-0.132-0.132","107","zwpjz049","high"
"4","56","free","220","72","91","green-74","green","1317","sampling-task","145","1108275","0.0-5.0-0.133-0.133","107","zwpjz049","high"
"4","57","free","220","72","100","green-194","green","605","sampling-task","146","1121770","0.0-5.0-0.134-0.134","107","zwpjz049","high"
"4","58","free","220","72","128","green-186","green","853","sampling-task","147","1126010","0.0-5.0-0.135-0.135","107","zwpjz049","high"
"4","59","free","220","72","57","green-140","green","701","sampling-task","148","1128194","0.0-5.0-0.136-0.136","107","zwpjz049","high"
"4","60","free","220","72","70","green-219","green","438","sampling-task","149","1130858","0.0-5.0-0.137-0.137","107","zwpjz049","high"
"4","61","free","220","72","54","green-189","green","877","sampling-task","150","1133058","0.0-5.0-0.138-0.138","107","zwpjz049","high"
"4","62","free","220","72","71","green-201","green","446","sampling-task","151","1135050","0.0-5.0-0.139-0.139","107","zwpjz049","high"
"4","63","free","220","72","85","green-47","green","3430","sampling-task","152","1139858","0.0-5.0-0.140-0.140","107","zwpjz049","high"
"4","64","free","220","72","88","green-21","green","413","sampling-task","153","1142322","0.0-5.0-0.141-0.141","107","zwpjz049","high"
"4","65","free","220","72","97","green-175","green","766","sampling-task","154","1145714","0.0-5.0-0.142-0.142","107","zwpjz049","high"
"4","66","free","220","72","65","green-132","green","733","sampling-task","155","1147658","0.0-5.0-0.143-0.143","107","zwpjz049","high"
"4","67","free","220","72","82","green-33","green","773","sampling-task","156","1149818","0.0-5.0-0.144-0.144","107","zwpjz049","high"
"4","68","free","220","72","44","green-90","green","829","sampling-task","157","1153458","0.0-5.0-0.145-0.145","107","zwpjz049","high"
"4","69","free","220","72","89","green-208","green","501","sampling-task","158","1155426","0.0-5.0-0.146-0.146","107","zwpjz049","high"
"4","70","free","220","72","93","green-14","green","525","sampling-task","159","1157210","0.0-5.0-0.147-0.147","107","zwpjz049","high"
"4","71","free","220","72","53","green-206","green","613","sampling-task","160","1159082","0.0-5.0-0.148-0.148","107","zwpjz049","high"
"4","72","free","220","72","80","green-50","green","982","sampling-task","161","1162314","0.0-5.0-0.149-0.149","107","zwpjz049","high"
"4","73","free","220","72","88","green-97","green","445","sampling-task","162","1163906","0.0-5.0-0.150-0.150","107","zwpjz049","high"
"4","74","free","220","72","113","green-49","green","453","sampling-task","163","1168994","0.0-5.0-0.151-0.151","107","zwpjz049","high"
"4","75","free","220","72","52","green-148","green","485","sampling-task","164","1171058","0.0-5.0-0.152-0.152","107","zwpjz049","high"
"4","76","free","220","72","85","green-205","green","421","sampling-task","165","1173754","0.0-5.0-0.153-0.153","107","zwpjz049","high"
"4","77","free","220","72","74","green-134","green","1261","sampling-task","166","1177554","0.0-5.0-0.154-0.154","107","zwpjz049","high"
"4","78","free","220","72","52","green-129","green","701","sampling-task","167","1179226","0.0-5.0-0.155-0.155","107","zwpjz049","high"
"4","79","free","220","72","56","green-69","green","1116","sampling-task","168","1182785","0.0-5.0-0.156-0.156","107","zwpjz049","high"
"5","1","fixed","20","14","34","blue-163","blue","4813","sampling-task","171","1223665","0.0-5.0-0.157-0.157","107","zwpjz049","high"
"5","2","fixed","20","14","-17","blue-55","blue","1037","sampling-task","172","1227361","0.0-5.0-0.158-0.158","107","zwpjz049","high"
"5","3","fixed","20","14","16","blue-139","blue","765","sampling-task","173","1230073","0.0-5.0-0.159-0.159","107","zwpjz049","high"
"5","4","fixed","20","14","24","blue-41","blue","2565","sampling-task","174","1235473","0.0-5.0-0.160-0.160","107","zwpjz049","high"
"5","5","fixed","20","14","41","blue-72","blue","765","sampling-task","175","1237945","0.0-5.0-0.161-0.161","107","zwpjz049","high"
"5","6","fixed","20","14","28","blue-91","blue","1357","sampling-task","176","1240887","0.0-5.0-0.162-0.162","107","zwpjz049","high"
"5","7","fixed","20","14","9","blue-136","blue","518","sampling-task","177","1244183","0.0-5.0-0.163-0.163","107","zwpjz049","high"
"5","8","fixed","20","14","23","blue-91","blue","437","sampling-task","178","1245679","0.0-5.0-0.164-0.164","107","zwpjz049","high"
"5","9","fixed","20","14","42","blue-113","blue","750","sampling-task","179","1250351","0.0-5.0-0.165-0.165","107","zwpjz049","high"
"5","10","fixed","20","14","39","blue-135","blue","646","sampling-task","180","1253935","0.0-5.0-0.166-0.166","107","zwpjz049","high"
"5","11","fixed","20","14","28","blue-106","blue","654","sampling-task","181","1255879","0.0-5.0-0.167-0.167","107","zwpjz049","high"
"5","12","fixed","20","14","-5","blue-70","blue","1430","sampling-task","182","1259343","0.0-5.0-0.168-0.168","107","zwpjz049","high"
"5","13","fixed","20","14","12","blue-148","blue","766","sampling-task","183","1261191","0.0-5.0-0.169-0.169","107","zwpjz049","high"
"5","14","fixed","20","14","23","blue-75","blue","781","sampling-task","184","1263159","0.0-5.0-0.170-0.170","107","zwpjz049","high"
"5","15","fixed","20","14","11","blue-122","blue","870","sampling-task","185","1265951","0.0-5.0-0.171-0.171","107","zwpjz049","high"
"5","16","fixed","20","14","25","blue-22","blue","669","sampling-task","186","1268503","0.0-5.0-0.172-0.172","107","zwpjz049","high"
"5","17","fixed","20","14","37","blue-103","blue","4670","sampling-task","187","1276183","0.0-5.0-0.173-0.173","107","zwpjz049","high"
"5","18","fixed","20","14","17","blue-125","blue","1613","sampling-task","188","1281271","0.0-5.0-0.174-0.174","107","zwpjz049","high"
"5","19","fixed","20","14","-12","blue-38","blue","790","sampling-task","189","1285943","0.0-5.0-0.175-0.175","107","zwpjz049","high"
"5","20","fixed","20","14","26","blue-64","blue","950","sampling-task","190","1288639","0.0-5.0-0.176-0.176","107","zwpjz049","high"
"6","1","free","220","95","130","purple-39","purple","4052","sampling-task","193","1314766","0.0-5.0-0.177-0.177","107","zwpjz049","high"
"6","2","free","220","95","114","purple-199","purple","1156","sampling-task","194","1318934","0.0-5.0-0.178-0.178","107","zwpjz049","high"
"6","3","free","220","95","146","purple-19","purple","797","sampling-task","195","1322310","0.0-5.0-0.179-0.179","107","zwpjz049","high"
"6","4","free","220","95","83","purple-28","purple","797","sampling-task","196","1326638","0.0-5.0-0.180-0.180","107","zwpjz049","high"
"6","5","free","220","95","69","purple-42","purple","628","sampling-task","197","1330550","0.0-5.0-0.181-0.181","107","zwpjz049","high"
"6","6","free","220","95","109","purple-23","purple","917","sampling-task","198","1333894","0.0-5.0-0.182-0.182","107","zwpjz049","high"
"6","7","free","220","95","104","purple-164","purple","789","sampling-task","199","1336246","0.0-5.0-0.183-0.183","107","zwpjz049","high"
"6","8","free","220","95","105","purple-84","purple","581","sampling-task","200","1338406","0.0-5.0-0.184-0.184","107","zwpjz049","high"
"6","9","free","220","95","89","purple-195","purple","508","sampling-task","201","1340718","0.0-5.0-0.185-0.185","107","zwpjz049","high"
"6","10","free","220","95","93","purple-24","purple","469","sampling-task","202","1343590","0.0-5.0-0.186-0.186","107","zwpjz049","high"
"6","11","free","220","95","80","purple-214","purple","813","sampling-task","203","1347502","0.0-5.0-0.187-0.187","107","zwpjz049","high"
"6","12","free","220","95","104","purple-36","purple","654","sampling-task","204","1352462","0.0-5.0-0.188-0.188","107","zwpjz049","high"
"6","13","free","220","95","101","purple-102","purple","782","sampling-task","205","1355438","0.0-5.0-0.189-0.189","107","zwpjz049","high"
"6","14","free","220","95","67","purple-165","purple","853","sampling-task","206","1360565","0.0-5.0-0.190-0.190","107","zwpjz049","high"
"6","15","free","220","95","101","purple-138","purple","1205","sampling-task","207","1364086","0.0-5.0-0.191-0.191","107","zwpjz049","high"
"6","16","free","220","95","89","purple-43","purple","717","sampling-task","208","1366510","0.0-5.0-0.192-0.192","107","zwpjz049","high"
"6","17","free","220","95","74","purple-199","purple","773","sampling-task","209","1368686","0.0-5.0-0.193-0.193","107","zwpjz049","high"
"6","18","free","220","95","69","purple-8","purple","437","sampling-task","210","1370734","0.0-5.0-0.194-0.194","107","zwpjz049","high"
"6","19","free","220","95","55","purple-92","purple","781","sampling-task","211","1373574","0.0-5.0-0.195-0.195","107","zwpjz049","high"
"6","20","free","220","95","97","purple-198","purple","717","sampling-task","212","1376398","0.0-5.0-0.196-0.196","107","zwpjz049","high"
"6","21","free","220","95","68","purple-39","purple","397","sampling-task","213","1378310","0.0-5.0-0.197-0.197","107","zwpjz049","high"
"6","22","free","220","95","85","purple-58","purple","405","sampling-task","214","1381406","0.0-5.0-0.198-0.198","107","zwpjz049","high"
"6","23","free","220","95","86","purple-192","purple","1237","sampling-task","215","1400910","0.0-5.0-0.199-0.199","107","zwpjz049","high"
"6","24","free","220","95","50","purple-100","purple","2501","sampling-task","216","1405190","0.0-5.0-0.200-0.200","107","zwpjz049","high"
"6","25","free","220","95","48","purple-200","purple","733","sampling-task","217","1407518","0.0-5.0-0.201-0.201","107","zwpjz049","high"
"6","26","free","220","95","87","purple-216","purple","677","sampling-task","218","1410326","0.0-5.0-0.202-0.202","107","zwpjz049","high"
"6","27","free","220","95","115","purple-41","purple","653","sampling-task","219","1413966","0.0-5.0-0.203-0.203","107","zwpjz049","high"
"6","28","free","220","95","74","purple-127","purple","477","sampling-task","220","1416710","0.0-5.0-0.204-0.204","107","zwpjz049","high"
"6","29","free","220","95","109","purple-182","purple","589","sampling-task","221","1418062","0.0-5.0-0.205-0.205","107","zwpjz049","high"
"6","30","free","220","95","81","purple-164","purple","733","sampling-task","222","1419948","0.0-5.0-0.206-0.206","107","zwpjz049","high"
"6","31","free","220","95","86","purple-69","purple","1676","sampling-task","223","1423868","0.0-5.0-0.207-0.207","107","zwpjz049","high"
"6","32","free","220","95","101","purple-121","purple","1147","sampling-task","224","1426812","0.0-5.0-0.208-0.208","107","zwpjz049","high"
"6","33","free","220","95","87","purple-159","purple","1310","sampling-task","225","1430156","0.0-5.0-0.209-0.209","107","zwpjz049","high"
"6","34","free","220","95","107","purple-65","purple","684","sampling-task","226","1432452","0.0-5.0-0.210-0.210","107","zwpjz049","high"
"6","35","free","220","95","102","purple-171","purple","741","sampling-task","227","1434644","0.0-5.0-0.211-0.211","107","zwpjz049","high"
"6","36","free","220","95","61","purple-195","purple","1246","sampling-task","228","1439508","0.0-5.0-0.212-0.212","107","zwpjz049","high"
"6","37","free","220","95","97","purple-34","purple","725","sampling-task","229","1442692","0.0-5.0-0.213-0.213","107","zwpjz049","high"
"6","38","free","220","95","115","purple-114","purple","1709","sampling-task","230","1447404","0.0-5.0-0.214-0.214","107","zwpjz049","high"
"6","39","free","220","95","117","purple-47","purple","404","sampling-task","231","1449964","0.0-5.0-0.215-0.215","107","zwpjz049","high"
"6","40","free","220","95","104","purple-68","purple","422","sampling-task","232","1452156","0.0-5.0-0.216-0.216","107","zwpjz049","high"
"6","41","free","220","95","126","purple-156","purple","437","sampling-task","233","1455532","0.0-5.0-0.217-0.217","107","zwpjz049","high"
"6","42","free","220","95","113","purple-112","purple","541","sampling-task","234","1460300","0.0-5.0-0.218-0.218","107","zwpjz049","high"
"6","43","free","220","95","109","purple-179","purple","764","sampling-task","235","1463820","0.0-5.0-0.219-0.219","107","zwpjz049","high"
"6","44","free","220","95","83","purple-144","purple","1149","sampling-task","236","1470716","0.0-5.0-0.220-0.220","107","zwpjz049","high"
"6","45","free","220","95","106","purple-89","purple","1028","sampling-task","237","1473756","0.0-5.0-0.221-0.221","107","zwpjz049","high"
"6","46","free","220","95","103","purple-151","purple","1612","sampling-task","238","1478076","0.0-5.0-0.222-0.222","107","zwpjz049","high"
"6","47","free","220","95","91","purple-218","purple","941","sampling-task","239","1480867","0.0-5.0-0.223-0.223","107","zwpjz049","high"
"6","48","free","220","95","134","purple-3","purple","749","sampling-task","240","1483547","0.0-5.0-0.224-0.224","107","zwpjz049","high"
"6","49","free","220","95","100","purple-35","purple","797","sampling-task","241","1485979","0.0-5.0-0.225-0.225","107","zwpjz049","high"
"6","50","free","220","95","98","purple-101","purple","1077","sampling-task","242","1488251","0.0-5.0-0.226-0.226","107","zwpjz049","high"
"6","51","free","220","95","110","purple-46","purple","413","sampling-task","243","1489618","0.0-5.0-0.227-0.227","107","zwpjz049","high"
"6","52","free","220","95","113","purple-87","purple","389","sampling-task","244","1491019","0.0-5.0-0.228-0.228","107","zwpjz049","high"
"6","53","free","220","95","138","purple-59","purple","965","sampling-task","245","1507083","0.0-5.0-0.229-0.229","107","zwpjz049","high"
"6","54","free","220","95","110","purple-17","purple","741","sampling-task","246","1509251","0.0-5.0-0.230-0.230","107","zwpjz049","high"
"6","55","free","220","95","94","purple-73","purple","469","sampling-task","247","1510947","0.0-5.0-0.231-0.231","107","zwpjz049","high"
"6","56","free","220","95","84","purple-178","purple","629","sampling-task","248","1512835","0.0-5.0-0.232-0.232","107","zwpjz049","high"
"6","57","free","220","95","106","purple-31","purple","797","sampling-task","249","1517187","0.0-5.0-0.233-0.233","107","zwpjz049","high"
"6","58","free","220","95","124","purple-55","purple","572","sampling-task","250","1519539","0.0-5.0-0.234-0.234","107","zwpjz049","high"
"6","59","free","220","95","85","purple-112","purple","805","sampling-task","251","1524419","0.0-5.0-0.235-0.235","107","zwpjz049","high"
"6","60","free","220","95","74","purple-141","purple","357","sampling-task","252","1526187","0.0-5.0-0.236-0.236","107","zwpjz049","high"
"6","61","free","220","95","103","purple-168","purple","485","sampling-task","253","1527595","0.0-5.0-0.237-0.237","107","zwpjz049","high"
"6","62","free","220","95","86","purple-67","purple","973","sampling-task","254","1535419","0.0-5.0-0.238-0.238","107","zwpjz049","high"
"6","63","free","220","95","96","purple-105","purple","2173","sampling-task","255","1539507","0.0-5.0-0.239-0.239","107","zwpjz049","high"
"6","64","free","220","95","115","purple-156","purple","515","sampling-task","256","1541834","0.0-5.0-0.240-0.240","107","zwpjz049","high"
