"round_number","sample_number","sampling_type","nSamples","mean","feedback","stimulus","stimulus_colour","rt","trial_type","trial_index","time_elapsed","internal_node_id","participant","randomID","condition"
"1","1","fixed","10","31","58","red-208","red","5621","sampling-task","6","7171149","0.0-5.0-0.0-0.0","70","bymhk8kc","high"
"1","2","fixed","10","31","37","red-4","red","3606","sampling-task","7","7179109","0.0-5.0-0.1-0.1","70","bymhk8kc","high"
"1","3","fixed","10","31","46","red-185","red","1790","sampling-task","8","7183325","0.0-5.0-0.2-0.2","70","bymhk8kc","high"
"1","4","fixed","10","31","-10","red-171","red","1062","sampling-task","9","7185733","0.0-5.0-0.3-0.3","70","bymhk8kc","high"
"1","5","fixed","10","31","64","red-73","red","1030","sampling-task","10","7188213","0.0-5.0-0.4-0.4","70","bymhk8kc","high"
"1","6","fixed","10","31","41","red-216","red","1022","sampling-task","11","7190557","0.0-5.0-0.5-0.5","70","bymhk8kc","high"
"1","7","fixed","10","31","47","red-44","red","1094","sampling-task","12","7192941","0.0-5.0-0.6-0.6","70","bymhk8kc","high"
"1","8","fixed","10","31","6","red-118","red","1302","sampling-task","13","7195245","0.0-5.0-0.7-0.7","70","bymhk8kc","high"
"1","9","fixed","10","31","38","red-209","red","1726","sampling-task","14","7198236","0.0-5.0-0.8-0.8","70","bymhk8kc","high"
"1","10","fixed","10","31","76","red-91","red","927","sampling-task","15","7202061","0.0-5.0-0.9-0.9","70","bymhk8kc","high"
"2","1","free","220","110","121","green-41","green","6925","sampling-task","18","7265504","0.0-5.0-0.10-0.10","70","bymhk8kc","high"
"2","2","free","220","110","91","green-151","green","1766","sampling-task","19","7268912","0.0-5.0-0.11-0.11","70","bymhk8kc","high"
"2","3","free","220","110","109","green-212","green","2839","sampling-task","20","7272800","0.0-5.0-0.12-0.12","70","bymhk8kc","high"
"2","4","free","220","110","133","green-120","green","761","sampling-task","21","7274620","0.0-5.0-0.13-0.13","70","bymhk8kc","high"
"2","5","free","220","110","95","green-94","green","622","sampling-task","22","7276164","0.0-5.0-0.14-0.14","70","bymhk8kc","high"
"2","6","free","220","110","116","green-127","green","710","sampling-task","23","7277796","0.0-5.0-0.15-0.15","70","bymhk8kc","high"
"2","7","free","220","110","80","green-38","green","590","sampling-task","24","7279332","0.0-5.0-0.16-0.16","70","bymhk8kc","high"
"2","8","free","220","110","103","green-205","green","550","sampling-task","25","7281068","0.0-5.0-0.17-0.17","70","bymhk8kc","high"
"2","9","free","220","110","137","green-60","green","621","sampling-task","26","7282588","0.0-5.0-0.18-0.18","70","bymhk8kc","high"
"2","10","free","220","110","97","green-30","green","638","sampling-task","27","7284236","0.0-5.0-0.19-0.19","70","bymhk8kc","high"
"2","11","free","220","110","87","green-94","green","518","sampling-task","28","7286308","0.0-5.0-0.20-0.20","70","bymhk8kc","high"
"2","12","free","220","110","105","green-205","green","485","sampling-task","29","7287684","0.0-5.0-0.21-0.21","70","bymhk8kc","high"
"2","13","free","220","110","115","green-104","green","478","sampling-task","30","7289044","0.0-5.0-0.22-0.22","70","bymhk8kc","high"
"2","14","free","220","110","106","green-152","green","510","sampling-task","31","7290420","0.0-5.0-0.23-0.23","70","bymhk8kc","high"
"2","15","free","220","110","101","green-144","green","470","sampling-task","32","7292292","0.0-5.0-0.24-0.24","70","bymhk8kc","high"
"2","16","free","220","110","87","green-109","green","454","sampling-task","33","7293948","0.0-5.0-0.25-0.25","70","bymhk8kc","high"
"2","17","free","220","110","106","green-93","green","590","sampling-task","34","7295740","0.0-5.0-0.26-0.26","70","bymhk8kc","high"
"2","18","free","220","110","128","green-53","green","446","sampling-task","35","7297108","0.0-5.0-0.27-0.27","70","bymhk8kc","high"
"2","19","free","220","110","102","green-3","green","502","sampling-task","36","7299628","0.0-5.0-0.28-0.28","70","bymhk8kc","high"
"2","20","free","220","110","92","green-27","green","486","sampling-task","37","7301492","0.0-5.0-0.29-0.29","70","bymhk8kc","high"
"2","21","free","220","110","113","green-53","green","406","sampling-task","38","7302772","0.0-5.0-0.30-0.30","70","bymhk8kc","high"
"2","22","free","220","110","103","green-125","green","342","sampling-task","39","7303964","0.0-5.0-0.31-0.31","70","bymhk8kc","high"
"2","23","free","220","110","83","green-65","green","438","sampling-task","40","7305292","0.0-5.0-0.32-0.32","70","bymhk8kc","high"
"2","24","free","220","110","127","green-191","green","462","sampling-task","41","7306636","0.0-5.0-0.33-0.33","70","bymhk8kc","high"
"2","25","free","220","110","103","green-179","green","486","sampling-task","42","7307924","0.0-5.0-0.34-0.34","70","bymhk8kc","high"
"2","26","free","220","110","88","green-215","green","654","sampling-task","43","7310212","0.0-5.0-0.35-0.35","70","bymhk8kc","high"
"2","27","free","220","110","132","green-209","green","463","sampling-task","44","7311668","0.0-5.0-0.36-0.36","70","bymhk8kc","high"
"2","28","free","220","110","115","green-195","green","974","sampling-task","45","7313972","0.0-5.0-0.37-0.37","70","bymhk8kc","high"
"3","1","fixed","5","51","38","blue-114","blue","2988","sampling-task","48","7370760","0.0-5.0-0.38-0.38","70","bymhk8kc","high"
"3","2","fixed","5","51","29","blue-75","blue","798","sampling-task","49","7372560","0.0-5.0-0.39-0.39","70","bymhk8kc","high"
"3","3","fixed","5","51","65","blue-189","blue","486","sampling-task","50","7373920","0.0-5.0-0.40-0.40","70","bymhk8kc","high"
"3","4","fixed","5","51","42","blue-12","blue","414","sampling-task","51","7375232","0.0-5.0-0.41-0.41","70","bymhk8kc","high"
"3","5","fixed","5","51","70","blue-88","blue","478","sampling-task","52","7376560","0.0-5.0-0.42-0.42","70","bymhk8kc","high"
"4","1","free","220","75","42","yellow-164","yellow","3612","sampling-task","55","7409676","0.0-5.0-0.43-0.43","70","bymhk8kc","high"
"4","2","free","220","75","64","yellow-205","yellow","389","sampling-task","56","7410932","0.0-5.0-0.44-0.44","70","bymhk8kc","high"
"4","3","free","220","75","86","yellow-176","yellow","373","sampling-task","57","7412124","0.0-5.0-0.45-0.45","70","bymhk8kc","high"
"4","4","free","220","75","94","yellow-156","yellow","382","sampling-task","58","7413372","0.0-5.0-0.46-0.46","70","bymhk8kc","high"
"4","5","free","220","75","31","yellow-70","yellow","382","sampling-task","59","7414620","0.0-5.0-0.47-0.47","70","bymhk8kc","high"
"4","6","free","220","75","78","yellow-85","yellow","374","sampling-task","60","7416228","0.0-5.0-0.48-0.48","70","bymhk8kc","high"
"4","7","free","220","75","78","yellow-135","yellow","391","sampling-task","61","7417708","0.0-5.0-0.49-0.49","70","bymhk8kc","high"
"4","8","free","220","75","70","yellow-10","yellow","1254","sampling-task","62","7419828","0.0-5.0-0.50-0.50","70","bymhk8kc","high"
"4","9","free","220","75","110","yellow-213","yellow","373","sampling-task","63","7421100","0.0-5.0-0.51-0.51","70","bymhk8kc","high"
"4","10","free","220","75","64","yellow-193","yellow","396","sampling-task","64","7422396","0.0-5.0-0.52-0.52","70","bymhk8kc","high"
"4","11","free","220","75","96","yellow-172","yellow","438","sampling-task","65","7423788","0.0-5.0-0.53-0.53","70","bymhk8kc","high"
"4","12","free","220","75","88","yellow-68","yellow","414","sampling-task","66","7425044","0.0-5.0-0.54-0.54","70","bymhk8kc","high"
"4","13","free","220","75","103","yellow-17","yellow","383","sampling-task","67","7426404","0.0-5.0-0.55-0.55","70","bymhk8kc","high"
"4","14","free","220","75","79","yellow-58","yellow","438","sampling-task","68","7427732","0.0-5.0-0.56-0.56","70","bymhk8kc","high"
"4","15","free","220","75","62","yellow-62","yellow","383","sampling-task","69","7428996","0.0-5.0-0.57-0.57","70","bymhk8kc","high"
"4","16","free","220","75","106","yellow-54","yellow","381","sampling-task","70","7430204","0.0-5.0-0.58-0.58","70","bymhk8kc","high"
"4","17","free","220","75","113","yellow-214","yellow","381","sampling-task","71","7431404","0.0-5.0-0.59-0.59","70","bymhk8kc","high"
"4","18","free","220","75","85","yellow-103","yellow","447","sampling-task","72","7432756","0.0-5.0-0.60-0.60","70","bymhk8kc","high"
"4","19","free","220","75","48","yellow-185","yellow","462","sampling-task","73","7434044","0.0-5.0-0.61-0.61","70","bymhk8kc","high"
"4","20","free","220","75","103","yellow-106","yellow","462","sampling-task","74","7435316","0.0-5.0-0.62-0.62","70","bymhk8kc","high"
"4","21","free","220","75","73","yellow-151","yellow","398","sampling-task","75","7436564","0.0-5.0-0.63-0.63","70","bymhk8kc","high"
"4","22","free","220","75","106","yellow-102","yellow","343","sampling-task","76","7437756","0.0-5.0-0.64-0.64","70","bymhk8kc","high"
"4","23","free","220","75","78","yellow-37","yellow","366","sampling-task","77","7439364","0.0-5.0-0.65-0.65","70","bymhk8kc","high"
"4","24","free","220","75","79","yellow-50","yellow","343","sampling-task","78","7440564","0.0-5.0-0.66-0.66","70","bymhk8kc","high"
"4","25","free","220","75","74","yellow-108","yellow","367","sampling-task","79","7442180","0.0-5.0-0.67-0.67","70","bymhk8kc","high"
"4","26","free","220","75","74","yellow-73","yellow","326","sampling-task","80","7443372","0.0-5.0-0.68-0.68","70","bymhk8kc","high"
"4","27","free","220","75","68","yellow-198","yellow","399","sampling-task","81","7444628","0.0-5.0-0.69-0.69","70","bymhk8kc","high"
"4","28","free","220","75","67","yellow-175","yellow","358","sampling-task","82","7445796","0.0-5.0-0.70-0.70","70","bymhk8kc","high"
"4","29","free","220","75","76","yellow-69","yellow","430","sampling-task","83","7447076","0.0-5.0-0.71-0.71","70","bymhk8kc","high"
"4","30","free","220","75","60","yellow-96","yellow","397","sampling-task","84","7448388","0.0-5.0-0.72-0.72","70","bymhk8kc","high"
"4","31","free","220","75","79","yellow-42","yellow","462","sampling-task","85","7450044","0.0-5.0-0.73-0.73","70","bymhk8kc","high"
"4","32","free","220","75","102","yellow-1","yellow","342","sampling-task","86","7451260","0.0-5.0-0.74-0.74","70","bymhk8kc","high"
"4","33","free","220","75","97","yellow-93","yellow","350","sampling-task","87","7452484","0.0-5.0-0.75-0.75","70","bymhk8kc","high"
"4","34","free","220","75","35","yellow-15","yellow","1301","sampling-task","88","7455312","0.0-5.0-0.76-0.76","70","bymhk8kc","high"
"4","35","free","220","75","85","yellow-35","yellow","366","sampling-task","89","7456344","0.0-5.0-0.77-0.77","70","bymhk8kc","high"
"4","36","free","220","75","82","yellow-220","yellow","437","sampling-task","90","7457576","0.0-5.0-0.78-0.78","70","bymhk8kc","high"
"4","37","free","220","75","128","yellow-120","yellow","366","sampling-task","91","7459224","0.0-5.0-0.79-0.79","70","bymhk8kc","high"
"4","38","free","220","75","62","yellow-18","yellow","1078","sampling-task","92","7461424","0.0-5.0-0.80-0.80","70","bymhk8kc","high"
"5","1","fixed","20","13","29","orange-207","orange","2989","sampling-task","95","7504656","0.0-5.0-0.81-0.81","70","bymhk8kc","high"
"5","2","fixed","20","13","-9","orange-47","orange","1061","sampling-task","96","7506983","0.0-5.0-0.82-0.82","70","bymhk8kc","high"
"5","3","fixed","20","13","7","orange-151","orange","526","sampling-task","97","7508799","0.0-5.0-0.83-0.83","70","bymhk8kc","high"
"5","4","fixed","20","13","47","orange-170","orange","638","sampling-task","98","7510688","0.0-5.0-0.84-0.84","70","bymhk8kc","high"
"5","5","fixed","20","13","40","orange-146","orange","622","sampling-task","99","7512456","0.0-5.0-0.85-0.85","70","bymhk8kc","high"
"5","6","fixed","20","13","14","orange-148","orange","534","sampling-task","100","7513856","0.0-5.0-0.86-0.86","70","bymhk8kc","high"
"5","7","fixed","20","13","15","orange-82","orange","490","sampling-task","101","7515235","0.0-5.0-0.87-0.87","70","bymhk8kc","high"
"5","8","fixed","20","13","-5","orange-164","orange","462","sampling-task","102","7516908","0.0-5.0-0.88-0.88","70","bymhk8kc","high"
"5","9","fixed","20","13","-46","orange-124","orange","486","sampling-task","103","7518435","0.0-5.0-0.89-0.89","70","bymhk8kc","high"
"5","10","fixed","20","13","-20","orange-166","orange","614","sampling-task","104","7520043","0.0-5.0-0.90-0.90","70","bymhk8kc","high"
"5","11","fixed","20","13","17","orange-63","orange","510","sampling-task","105","7521748","0.0-5.0-0.91-0.91","70","bymhk8kc","high"
"5","12","fixed","20","13","-7","orange-197","orange","614","sampling-task","106","7523364","0.0-5.0-0.92-0.92","70","bymhk8kc","high"
"5","13","fixed","20","13","-15","orange-93","orange","406","sampling-task","107","7524699","0.0-5.0-0.93-0.93","70","bymhk8kc","high"
"5","14","fixed","20","13","32","orange-77","orange","366","sampling-task","108","7527123","0.0-5.0-0.94-0.94","70","bymhk8kc","high"
"5","15","fixed","20","13","6","orange-113","orange","414","sampling-task","109","7528347","0.0-5.0-0.95-0.95","70","bymhk8kc","high"
"5","16","fixed","20","13","25","orange-159","orange","398","sampling-task","110","7529547","0.0-5.0-0.96-0.96","70","bymhk8kc","high"
"5","17","fixed","20","13","15","orange-202","orange","654","sampling-task","111","7531027","0.0-5.0-0.97-0.97","70","bymhk8kc","high"
"5","18","fixed","20","13","3","orange-173","orange","622","sampling-task","112","7532531","0.0-5.0-0.98-0.98","70","bymhk8kc","high"
"5","19","fixed","20","13","13","orange-12","orange","462","sampling-task","113","7533875","0.0-5.0-0.99-0.99","70","bymhk8kc","high"
"5","20","fixed","20","13","15","orange-28","orange","734","sampling-task","114","7537147","0.0-5.0-0.100-0.100","70","bymhk8kc","high"
"6","1","free","220","93","79","purple-24","purple","5053","sampling-task","117","7583031","0.0-5.0-0.101-0.101","70","bymhk8kc","high"
"6","2","free","220","93","135","purple-97","purple","470","sampling-task","118","7584439","0.0-5.0-0.102-0.102","70","bymhk8kc","high"
"6","3","free","220","93","74","purple-117","purple","494","sampling-task","119","7585840","0.0-5.0-0.103-0.103","70","bymhk8kc","high"
"6","4","free","220","93","64","purple-11","purple","478","sampling-task","120","7587160","0.0-5.0-0.104-0.104","70","bymhk8kc","high"
"6","5","free","220","93","66","purple-188","purple","574","sampling-task","121","7588576","0.0-5.0-0.105-0.105","70","bymhk8kc","high"
"6","6","free","220","93","117","purple-87","purple","470","sampling-task","122","7589832","0.0-5.0-0.106-0.106","70","bymhk8kc","high"
"6","7","free","220","93","81","purple-123","purple","461","sampling-task","123","7591136","0.0-5.0-0.107-0.107","70","bymhk8kc","high"
"6","8","free","220","93","102","purple-162","purple","446","sampling-task","124","7592456","0.0-5.0-0.108-0.108","70","bymhk8kc","high"
"6","9","free","220","93","62","purple-115","purple","406","sampling-task","125","7593784","0.0-5.0-0.109-0.109","70","bymhk8kc","high"
"6","10","free","220","93","137","purple-81","purple","461","sampling-task","126","7595040","0.0-5.0-0.110-0.110","70","bymhk8kc","high"
"6","11","free","220","93","140","purple-183","purple","390","sampling-task","127","7596240","0.0-5.0-0.111-0.111","70","bymhk8kc","high"
"6","12","free","220","93","94","purple-156","purple","374","sampling-task","128","7597488","0.0-5.0-0.112-0.112","70","bymhk8kc","high"
"6","13","free","220","93","96","purple-92","purple","646","sampling-task","129","7600896","0.0-5.0-0.113-0.113","70","bymhk8kc","high"
