"round_number","sample_number","sampling_type","nSamples","mean","feedback","stimulus","stimulus_colour","rt","trial_type","trial_index","time_elapsed","internal_node_id","participant","randomID","condition"
"1","1","fixed","20","16","-20","green-122","green","7500","sampling-task","6","348299","0.0-5.0-0.0-0.0","90","b3gp2j05","low"
"1","2","fixed","20","16","7","green-122","green","1037","sampling-task","7","355019","0.0-5.0-0.1-0.1","90","b3gp2j05","low"
"1","3","fixed","20","16","39","green-122","green","5350","sampling-task","8","362371","0.0-5.0-0.2-0.2","90","b3gp2j05","low"
"1","4","fixed","20","16","6","green-122","green","1286","sampling-task","9","365483","0.0-5.0-0.3-0.3","90","b3gp2j05","low"
"1","5","fixed","20","16","-15","green-122","green","1190","sampling-task","10","369099","0.0-5.0-0.4-0.4","90","b3gp2j05","low"
"1","6","fixed","20","16","22","green-122","green","1285","sampling-task","11","371923","0.0-5.0-0.5-0.5","90","b3gp2j05","low"
"1","7","fixed","20","16","17","green-122","green","1278","sampling-task","12","375659","0.0-5.0-0.6-0.6","90","b3gp2j05","low"
"1","8","fixed","20","16","21","green-122","green","1718","sampling-task","13","379155","0.0-5.0-0.7-0.7","90","b3gp2j05","low"
"1","9","fixed","20","16","57","green-122","green","854","sampling-task","14","381795","0.0-5.0-0.8-0.8","90","b3gp2j05","low"
"1","10","fixed","20","16","27","green-122","green","1934","sampling-task","15","386083","0.0-5.0-0.9-0.9","90","b3gp2j05","low"
"1","11","fixed","20","16","-1","green-122","green","1006","sampling-task","16","388491","0.0-5.0-0.10-0.10","90","b3gp2j05","low"
"1","12","fixed","20","16","15","green-122","green","1438","sampling-task","17","391355","0.0-5.0-0.11-0.11","90","b3gp2j05","low"
"1","13","fixed","20","16","40","green-122","green","998","sampling-task","18","394179","0.0-5.0-0.12-0.12","90","b3gp2j05","low"
"1","14","fixed","20","16","50","green-122","green","1014","sampling-task","19","397094","0.0-5.0-0.13-0.13","90","b3gp2j05","low"
"1","15","fixed","20","16","12","green-122","green","1349","sampling-task","20","400126","0.0-5.0-0.14-0.14","90","b3gp2j05","low"
"1","16","fixed","20","16","31","green-122","green","694","sampling-task","21","402014","0.0-5.0-0.15-0.15","90","b3gp2j05","low"
"1","17","fixed","20","16","8","green-122","green","694","sampling-task","22","404006","0.0-5.0-0.16-0.16","90","b3gp2j05","low"
"1","18","fixed","20","16","8","green-122","green","718","sampling-task","23","405990","0.0-5.0-0.17-0.17","90","b3gp2j05","low"
"1","19","fixed","20","16","25","green-122","green","797","sampling-task","24","408086","0.0-5.0-0.18-0.18","90","b3gp2j05","low"
"1","20","fixed","20","16","28","green-122","green","703","sampling-task","25","414830","0.0-5.0-0.19-0.19","90","b3gp2j05","low"
"2","1","free","220","33","66","blue-80","blue","4451","sampling-task","28","456798","0.0-5.0-0.20-0.20","90","b3gp2j05","low"
"2","2","free","220","33","55","blue-80","blue","546","sampling-task","29","458569","0.0-5.0-0.21-0.21","90","b3gp2j05","low"
"2","3","free","220","33","42","blue-80","blue","518","sampling-task","30","460177","0.0-5.0-0.22-0.22","90","b3gp2j05","low"
"2","4","free","220","33","17","blue-80","blue","470","sampling-task","31","461577","0.0-5.0-0.23-0.23","90","b3gp2j05","low"
"2","5","free","220","33","49","blue-80","blue","527","sampling-task","32","463289","0.0-5.0-0.24-0.24","90","b3gp2j05","low"
"2","6","free","220","33","51","blue-80","blue","502","sampling-task","33","464793","0.0-5.0-0.25-0.25","90","b3gp2j05","low"
"2","7","free","220","33","7","blue-80","blue","454","sampling-task","34","466329","0.0-5.0-0.26-0.26","90","b3gp2j05","low"
"2","8","free","220","33","35","blue-80","blue","598","sampling-task","35","467857","0.0-5.0-0.27-0.27","90","b3gp2j05","low"
"2","9","free","220","33","17","blue-80","blue","470","sampling-task","36","469257","0.0-5.0-0.28-0.28","90","b3gp2j05","low"
"2","10","free","220","33","28","blue-80","blue","486","sampling-task","37","470850","0.0-5.0-0.29-0.29","90","b3gp2j05","low"
"2","11","free","220","33","40","blue-80","blue","526","sampling-task","38","472322","0.0-5.0-0.30-0.30","90","b3gp2j05","low"
"2","12","free","220","33","49","blue-80","blue","494","sampling-task","39","473985","0.0-5.0-0.31-0.31","90","b3gp2j05","low"
"2","13","free","220","33","49","blue-80","blue","462","sampling-task","40","475361","0.0-5.0-0.32-0.32","90","b3gp2j05","low"
"2","14","free","220","33","6","blue-80","blue","518","sampling-task","41","476769","0.0-5.0-0.33-0.33","90","b3gp2j05","low"
"2","15","free","220","33","48","blue-80","blue","502","sampling-task","42","478242","0.0-5.0-0.34-0.34","90","b3gp2j05","low"
"2","16","free","220","33","26","blue-80","blue","478","sampling-task","43","479601","0.0-5.0-0.35-0.35","90","b3gp2j05","low"
"2","17","free","220","33","72","blue-80","blue","518","sampling-task","44","481194","0.0-5.0-0.36-0.36","90","b3gp2j05","low"
"2","18","free","220","33","24","blue-80","blue","446","sampling-task","45","482513","0.0-5.0-0.37-0.37","90","b3gp2j05","low"
"2","19","free","220","33","8","blue-80","blue","438","sampling-task","46","483850","0.0-5.0-0.38-0.38","90","b3gp2j05","low"
"2","20","free","220","33","70","blue-80","blue","438","sampling-task","47","485409","0.0-5.0-0.39-0.39","90","b3gp2j05","low"
"2","21","free","220","33","55","blue-80","blue","461","sampling-task","48","486873","0.0-5.0-0.40-0.40","90","b3gp2j05","low"
"2","22","free","220","33","28","blue-80","blue","446","sampling-task","49","488761","0.0-5.0-0.41-0.41","90","b3gp2j05","low"
"2","23","free","220","33","19","blue-80","blue","430","sampling-task","50","490745","0.0-5.0-0.42-0.42","90","b3gp2j05","low"
"3","1","fixed","10","114","132","yellow-128","yellow","3775","sampling-task","53","521197","0.0-5.0-0.43-0.43","90","b3gp2j05","low"
"3","2","fixed","10","114","59","yellow-128","yellow","565","sampling-task","54","522973","0.0-5.0-0.44-0.44","90","b3gp2j05","low"
"3","3","fixed","10","114","90","yellow-128","yellow","638","sampling-task","55","524757","0.0-5.0-0.45-0.45","90","b3gp2j05","low"
"3","4","fixed","10","114","90","yellow-128","yellow","477","sampling-task","56","526429","0.0-5.0-0.46-0.46","90","b3gp2j05","low"
"3","5","fixed","10","114","100","yellow-128","yellow","502","sampling-task","57","527997","0.0-5.0-0.47-0.47","90","b3gp2j05","low"
"3","6","fixed","10","114","133","yellow-128","yellow","478","sampling-task","58","529413","0.0-5.0-0.48-0.48","90","b3gp2j05","low"
"3","7","fixed","10","114","111","yellow-128","yellow","470","sampling-task","59","530773","0.0-5.0-0.49-0.49","90","b3gp2j05","low"
"3","8","fixed","10","114","126","yellow-128","yellow","518","sampling-task","60","532189","0.0-5.0-0.50-0.50","90","b3gp2j05","low"
"3","9","fixed","10","114","144","yellow-128","yellow","494","sampling-task","61","533773","0.0-5.0-0.51-0.51","90","b3gp2j05","low"
"3","10","fixed","10","114","129","yellow-128","yellow","445","sampling-task","62","535101","0.0-5.0-0.52-0.52","90","b3gp2j05","low"
"4","1","free","220","56","70","red-170","red","2868","sampling-task","65","556989","0.0-5.0-0.53-0.53","90","b3gp2j05","low"
"4","2","free","220","56","18","red-170","red","958","sampling-task","66","558901","0.0-5.0-0.54-0.54","90","b3gp2j05","low"
"4","3","free","220","56","36","red-170","red","630","sampling-task","67","560437","0.0-5.0-0.55-0.55","90","b3gp2j05","low"
"4","4","free","220","56","35","red-170","red","637","sampling-task","68","562101","0.0-5.0-0.56-0.56","90","b3gp2j05","low"
"4","5","free","220","56","40","red-170","red","486","sampling-task","69","563549","0.0-5.0-0.57-0.57","90","b3gp2j05","low"
"4","6","free","220","56","25","red-170","red","637","sampling-task","70","565365","0.0-5.0-0.58-0.58","90","b3gp2j05","low"
"4","7","free","220","56","83","red-170","red","453","sampling-task","71","566861","0.0-5.0-0.59-0.59","90","b3gp2j05","low"
"4","8","free","220","56","44","red-170","red","437","sampling-task","72","568533","0.0-5.0-0.60-0.60","90","b3gp2j05","low"
"4","9","free","220","56","76","red-170","red","421","sampling-task","73","569869","0.0-5.0-0.61-0.61","90","b3gp2j05","low"
"4","10","free","220","56","55","red-170","red","414","sampling-task","74","571317","0.0-5.0-0.62-0.62","90","b3gp2j05","low"
"4","11","free","220","56","27","red-170","red","478","sampling-task","75","572669","0.0-5.0-0.63-0.63","90","b3gp2j05","low"
"4","12","free","220","56","55","red-170","red","486","sampling-task","76","574197","0.0-5.0-0.64-0.64","90","b3gp2j05","low"
"4","13","free","220","56","57","red-170","red","397","sampling-task","77","575469","0.0-5.0-0.65-0.65","90","b3gp2j05","low"
"4","14","free","220","56","35","red-170","red","429","sampling-task","78","577037","0.0-5.0-0.66-0.66","90","b3gp2j05","low"
"4","15","free","220","56","83","red-170","red","397","sampling-task","79","579439","0.0-5.0-0.67-0.67","90","b3gp2j05","low"
"4","16","free","220","56","70","red-170","red","406","sampling-task","80","581215","0.0-5.0-0.68-0.68","90","b3gp2j05","low"
"4","17","free","220","56","36","red-170","red","606","sampling-task","81","582999","0.0-5.0-0.69-0.69","90","b3gp2j05","low"
"4","18","free","220","56","82","red-170","red","1117","sampling-task","82","585079","0.0-5.0-0.70-0.70","90","b3gp2j05","low"
"4","19","free","220","56","37","red-170","red","597","sampling-task","83","586535","0.0-5.0-0.71-0.71","90","b3gp2j05","low"
"4","20","free","220","56","20","red-170","red","533","sampling-task","84","587959","0.0-5.0-0.72-0.72","90","b3gp2j05","low"
"4","21","free","220","56","79","red-170","red","470","sampling-task","85","589424","0.0-5.0-0.73-0.73","90","b3gp2j05","low"
"4","22","free","220","56","84","red-170","red","454","sampling-task","86","590767","0.0-5.0-0.74-0.74","90","b3gp2j05","low"
"4","23","free","220","56","46","red-170","red","478","sampling-task","87","592119","0.0-5.0-0.75-0.75","90","b3gp2j05","low"
"4","24","free","220","56","24","red-170","red","406","sampling-task","88","593391","0.0-5.0-0.76-0.76","90","b3gp2j05","low"
"4","25","free","220","56","56","red-170","red","390","sampling-task","89","594631","0.0-5.0-0.77-0.77","90","b3gp2j05","low"
"4","26","free","220","56","67","red-170","red","397","sampling-task","90","595879","0.0-5.0-0.78-0.78","90","b3gp2j05","low"
"4","27","free","220","56","40","red-170","red","1518","sampling-task","91","598343","0.0-5.0-0.79-0.79","90","b3gp2j05","low"
"4","28","free","220","56","79","red-170","red","581","sampling-task","92","599823","0.0-5.0-0.80-0.80","90","b3gp2j05","low"
"4","29","free","220","56","28","red-170","red","429","sampling-task","93","601263","0.0-5.0-0.81-0.81","90","b3gp2j05","low"
"5","1","fixed","5","77","85","purple-105","purple","2820","sampling-task","96","621439","0.0-5.0-0.82-0.82","90","b3gp2j05","low"
"5","2","fixed","5","77","76","purple-105","purple","518","sampling-task","97","623071","0.0-5.0-0.83-0.83","90","b3gp2j05","low"
"5","3","fixed","5","77","56","purple-105","purple","510","sampling-task","98","624607","0.0-5.0-0.84-0.84","90","b3gp2j05","low"
"5","4","fixed","5","77","69","purple-105","purple","533","sampling-task","99","626023","0.0-5.0-0.85-0.85","90","b3gp2j05","low"
"5","5","fixed","5","77","73","purple-105","purple","773","sampling-task","100","627687","0.0-5.0-0.86-0.86","90","b3gp2j05","low"
"6","1","free","220","90","123","orange-46","orange","2252","sampling-task","103","648930","0.0-5.0-0.87-0.87","90","b3gp2j05","low"
"6","2","free","220","90","75","orange-46","orange","485","sampling-task","104","650354","0.0-5.0-0.88-0.88","90","b3gp2j05","low"
"6","3","free","220","90","67","orange-46","orange","374","sampling-task","105","651690","0.0-5.0-0.89-0.89","90","b3gp2j05","low"
"6","4","free","220","90","77","orange-46","orange","445","sampling-task","106","652994","0.0-5.0-0.90-0.90","90","b3gp2j05","low"
"6","5","free","220","90","105","orange-46","orange","446","sampling-task","107","654306","0.0-5.0-0.91-0.91","90","b3gp2j05","low"
"6","6","free","220","90","80","orange-46","orange","438","sampling-task","108","655618","0.0-5.0-0.92-0.92","90","b3gp2j05","low"
"6","7","free","220","90","97","orange-46","orange","398","sampling-task","109","657122","0.0-5.0-0.93-0.93","90","b3gp2j05","low"
"6","8","free","220","90","107","orange-46","orange","309","sampling-task","110","658426","0.0-5.0-0.94-0.94","90","b3gp2j05","low"
"6","9","free","220","90","81","orange-46","orange","437","sampling-task","111","659738","0.0-5.0-0.95-0.95","90","b3gp2j05","low"
"6","10","free","220","90","75","orange-46","orange","438","sampling-task","112","661026","0.0-5.0-0.96-0.96","90","b3gp2j05","low"
"6","11","free","220","90","107","orange-46","orange","373","sampling-task","113","662434","0.0-5.0-0.97-0.97","90","b3gp2j05","low"
"6","12","free","220","90","106","orange-46","orange","445","sampling-task","114","663802","0.0-5.0-0.98-0.98","90","b3gp2j05","low"
"6","13","free","220","90","79","orange-46","orange","406","sampling-task","115","665065","0.0-5.0-0.99-0.99","90","b3gp2j05","low"
"6","14","free","220","90","69","orange-46","orange","382","sampling-task","116","666282","0.0-5.0-0.100-0.100","90","b3gp2j05","low"
"6","15","free","220","90","75","orange-46","orange","382","sampling-task","117","667546","0.0-5.0-0.101-0.101","90","b3gp2j05","low"
"6","16","free","220","90","72","orange-46","orange","629","sampling-task","118","669858","0.0-5.0-0.102-0.102","90","b3gp2j05","low"
