"round_number","sample_number","sampling_type","nSamples","mean","feedback","stimulus","stimulus_colour","rt","trial_type","trial_index","time_elapsed","internal_node_id","participant","randomID","condition"
"1","1","fixed","10","93","100","yellow-192","yellow","13843","sampling-task","6","732969","0.0-5.0-0.0-0.0","82","40zjl65y","high"
"1","2","fixed","10","93","74","yellow-129","yellow","7670","sampling-task","7","742768","0.0-5.0-0.1-0.1","82","40zjl65y","high"
"1","3","fixed","10","93","96","yellow-123","yellow","3070","sampling-task","8","748032","0.0-5.0-0.2-0.2","82","40zjl65y","high"
"1","4","fixed","10","93","76","yellow-195","yellow","5054","sampling-task","9","754936","0.0-5.0-0.3-0.3","82","40zjl65y","high"
"1","5","fixed","10","93","102","yellow-127","yellow","3926","sampling-task","10","760976","0.0-5.0-0.4-0.4","82","40zjl65y","high"
"1","6","fixed","10","93","109","yellow-35","yellow","6963","sampling-task","11","769374","0.0-5.0-0.5-0.5","82","40zjl65y","high"
"1","7","fixed","10","93","103","yellow-90","yellow","3358","sampling-task","12","774973","0.0-5.0-0.6-0.6","82","40zjl65y","high"
"1","8","fixed","10","93","68","yellow-69","yellow","2629","sampling-task","13","779149","0.0-5.0-0.7-0.7","82","40zjl65y","high"
"1","9","fixed","10","93","72","yellow-53","yellow","2965","sampling-task","14","783429","0.0-5.0-0.8-0.8","82","40zjl65y","high"
"1","10","fixed","10","93","75","yellow-56","yellow","4117","sampling-task","15","789605","0.0-5.0-0.9-0.9","82","40zjl65y","high"
"2","1","free","220","32","35","green-138","green","4628","sampling-task","18","842389","0.0-5.0-0.10-0.10","82","40zjl65y","high"
"2","2","free","220","32","27","green-207","green","1838","sampling-task","19","845884","0.0-5.0-0.11-0.11","82","40zjl65y","high"
"2","3","free","220","32","32","green-43","green","1294","sampling-task","20","848757","0.0-5.0-0.12-0.12","82","40zjl65y","high"
"2","4","free","220","32","12","green-158","green","878","sampling-task","21","851133","0.0-5.0-0.13-0.13","82","40zjl65y","high"
"2","5","free","220","32","44","green-64","green","734","sampling-task","22","853204","0.0-5.0-0.14-0.14","82","40zjl65y","high"
"2","6","free","220","32","24","green-99","green","782","sampling-task","23","855660","0.0-5.0-0.15-0.15","82","40zjl65y","high"
"2","7","free","220","32","29","green-40","green","782","sampling-task","24","857973","0.0-5.0-0.16-0.16","82","40zjl65y","high"
"2","8","free","220","32","23","green-80","green","1926","sampling-task","25","861701","0.0-5.0-0.17-0.17","82","40zjl65y","high"
"2","9","free","220","32","41","green-2","green","749","sampling-task","26","863964","0.0-5.0-0.18-0.18","82","40zjl65y","high"
"2","10","free","220","32","24","green-63","green","646","sampling-task","27","866141","0.0-5.0-0.19-0.19","82","40zjl65y","high"
"2","11","free","220","32","-8","green-69","green","2302","sampling-task","28","870293","0.0-5.0-0.20-0.20","82","40zjl65y","high"
"2","12","free","220","32","20","green-119","green","1142","sampling-task","29","872716","0.0-5.0-0.21-0.21","82","40zjl65y","high"
"2","13","free","220","32","10","green-39","green","1102","sampling-task","30","875076","0.0-5.0-0.22-0.22","82","40zjl65y","high"
"2","14","free","220","32","18","green-168","green","1470","sampling-task","31","877836","0.0-5.0-0.23-0.23","82","40zjl65y","high"
"2","15","free","220","32","45","green-165","green","1310","sampling-task","32","880757","0.0-5.0-0.24-0.24","82","40zjl65y","high"
"2","16","free","220","32","20","green-175","green","630","sampling-task","33","882669","0.0-5.0-0.25-0.25","82","40zjl65y","high"
"2","17","free","220","32","7","green-63","green","662","sampling-task","34","884637","0.0-5.0-0.26-0.26","82","40zjl65y","high"
"2","18","free","220","32","16","green-107","green","614","sampling-task","35","886404","0.0-5.0-0.27-0.27","82","40zjl65y","high"
"2","19","free","220","32","69","green-66","green","718","sampling-task","36","890026","0.0-5.0-0.28-0.28","82","40zjl65y","high"
"2","20","free","220","32","13","green-9","green","702","sampling-task","37","892146","0.0-5.0-0.29-0.29","82","40zjl65y","high"
"2","21","free","220","32","60","green-169","green","702","sampling-task","38","894370","0.0-5.0-0.30-0.30","82","40zjl65y","high"
"2","22","free","220","32","14","green-134","green","693","sampling-task","39","896466","0.0-5.0-0.31-0.31","82","40zjl65y","high"
"2","23","free","220","32","62","green-149","green","662","sampling-task","40","900314","0.0-5.0-0.32-0.32","82","40zjl65y","high"
"2","24","free","220","32","60","green-28","green","766","sampling-task","41","904098","0.0-5.0-0.33-0.33","82","40zjl65y","high"
"2","25","free","220","32","5","green-18","green","1086","sampling-task","42","906722","0.0-5.0-0.34-0.34","82","40zjl65y","high"
"2","26","free","220","32","26","green-147","green","725","sampling-task","43","909098","0.0-5.0-0.35-0.35","82","40zjl65y","high"
"2","27","free","220","32","60","green-194","green","1005","sampling-task","44","912450","0.0-5.0-0.36-0.36","82","40zjl65y","high"
"2","28","free","220","32","59","green-201","green","830","sampling-task","45","914722","0.0-5.0-0.37-0.37","82","40zjl65y","high"
"2","29","free","220","32","-13","green-85","green","950","sampling-task","46","917226","0.0-5.0-0.38-0.38","82","40zjl65y","high"
"2","30","free","220","32","46","green-152","green","702","sampling-task","47","919434","0.0-5.0-0.39-0.39","82","40zjl65y","high"
"2","31","free","220","32","27","green-147","green","565","sampling-task","48","921626","0.0-5.0-0.40-0.40","82","40zjl65y","high"
"2","32","free","220","32","42","green-118","green","1262","sampling-task","49","924418","0.0-5.0-0.41-0.41","82","40zjl65y","high"
"3","1","fixed","20","15","43","red-22","red","7101","sampling-task","52","979471","0.0-5.0-0.42-0.42","82","40zjl65y","high"
"3","2","fixed","20","15","1","red-157","red","1182","sampling-task","53","981647","0.0-5.0-0.43-0.43","82","40zjl65y","high"
"3","3","fixed","20","15","42","red-6","red","767","sampling-task","54","983631","0.0-5.0-0.44-0.44","82","40zjl65y","high"
"3","4","fixed","20","15","15","red-130","red","1910","sampling-task","55","986943","0.0-5.0-0.45-0.45","82","40zjl65y","high"
"3","5","fixed","20","15","-10","red-141","red","1183","sampling-task","56","989319","0.0-5.0-0.46-0.46","82","40zjl65y","high"
"3","6","fixed","20","15","-7","red-148","red","1054","sampling-task","57","991575","0.0-5.0-0.47-0.47","82","40zjl65y","high"
"3","7","fixed","20","15","-21","red-131","red","1062","sampling-task","58","994687","0.0-5.0-0.48-0.48","82","40zjl65y","high"
"3","8","fixed","20","15","47","red-100","red","622","sampling-task","59","996855","0.0-5.0-0.49-0.49","82","40zjl65y","high"
"3","9","fixed","20","15","13","red-44","red","726","sampling-task","60","998959","0.0-5.0-0.50-0.50","82","40zjl65y","high"
"3","10","fixed","20","15","19","red-82","red","662","sampling-task","61","1001071","0.0-5.0-0.51-0.51","82","40zjl65y","high"
"3","11","fixed","20","15","5","red-105","red","750","sampling-task","62","1003352","0.0-5.0-0.52-0.52","82","40zjl65y","high"
"3","12","fixed","20","15","-3","red-30","red","694","sampling-task","63","1005440","0.0-5.0-0.53-0.53","82","40zjl65y","high"
"3","13","fixed","20","15","24","red-202","red","622","sampling-task","64","1007407","0.0-5.0-0.54-0.54","82","40zjl65y","high"
"3","14","fixed","20","15","-1","red-219","red","734","sampling-task","65","1009655","0.0-5.0-0.55-0.55","82","40zjl65y","high"
"3","15","fixed","20","15","22","red-10","red","646","sampling-task","66","1012173","0.0-5.0-0.56-0.56","82","40zjl65y","high"
"3","16","fixed","20","15","-20","red-189","red","653","sampling-task","67","1014101","0.0-5.0-0.57-0.57","82","40zjl65y","high"
"3","17","fixed","20","15","48","red-115","red","510","sampling-task","68","1017317","0.0-5.0-0.58-0.58","82","40zjl65y","high"
"3","18","fixed","20","15","15","red-112","red","582","sampling-task","69","1018949","0.0-5.0-0.59-0.59","82","40zjl65y","high"
"3","19","fixed","20","15","0","red-142","red","566","sampling-task","70","1020565","0.0-5.0-0.60-0.60","82","40zjl65y","high"
"3","20","fixed","20","15","36","red-149","red","558","sampling-task","71","1024845","0.0-5.0-0.61-0.61","82","40zjl65y","high"
"4","1","free","220","53","39","orange-136","orange","2213","sampling-task","74","1059893","0.0-5.0-0.62-0.62","82","40zjl65y","high"
"4","2","free","220","53","97","orange-123","orange","630","sampling-task","75","1061573","0.0-5.0-0.63-0.63","82","40zjl65y","high"
"4","3","free","220","53","47","orange-110","orange","566","sampling-task","76","1063245","0.0-5.0-0.64-0.64","82","40zjl65y","high"
"4","4","free","220","53","61","orange-5","orange","501","sampling-task","77","1064645","0.0-5.0-0.65-0.65","82","40zjl65y","high"
"4","5","free","220","53","45","orange-114","orange","502","sampling-task","78","1066141","0.0-5.0-0.66-0.66","82","40zjl65y","high"
"4","6","free","220","53","48","orange-120","orange","494","sampling-task","79","1067589","0.0-5.0-0.67-0.67","82","40zjl65y","high"
"4","7","free","220","53","23","orange-215","orange","438","sampling-task","80","1069021","0.0-5.0-0.68-0.68","82","40zjl65y","high"
"4","8","free","220","53","13","orange-23","orange","461","sampling-task","81","1070389","0.0-5.0-0.69-0.69","82","40zjl65y","high"
"4","9","free","220","53","18","orange-143","orange","462","sampling-task","82","1071941","0.0-5.0-0.70-0.70","82","40zjl65y","high"
"4","10","free","220","53","76","orange-120","orange","458","sampling-task","83","1073618","0.0-5.0-0.71-0.71","82","40zjl65y","high"
"4","11","free","220","53","43","orange-125","orange","494","sampling-task","84","1075266","0.0-5.0-0.72-0.72","82","40zjl65y","high"
"4","12","free","220","53","59","orange-58","orange","558","sampling-task","85","1077058","0.0-5.0-0.73-0.73","82","40zjl65y","high"
"4","13","free","220","53","37","orange-200","orange","486","sampling-task","86","1078610","0.0-5.0-0.74-0.74","82","40zjl65y","high"
"4","14","free","220","53","58","orange-58","orange","494","sampling-task","87","1080321","0.0-5.0-0.75-0.75","82","40zjl65y","high"
"4","15","free","220","53","49","orange-197","orange","486","sampling-task","88","1081906","0.0-5.0-0.76-0.76","82","40zjl65y","high"
"4","16","free","220","53","71","orange-150","orange","501","sampling-task","89","1083546","0.0-5.0-0.77-0.77","82","40zjl65y","high"
"4","17","free","220","53","54","orange-27","orange","510","sampling-task","90","1085018","0.0-5.0-0.78-0.78","82","40zjl65y","high"
"4","18","free","220","53","99","orange-42","orange","518","sampling-task","91","1086602","0.0-5.0-0.79-0.79","82","40zjl65y","high"
"4","19","free","220","53","64","orange-161","orange","494","sampling-task","92","1088466","0.0-5.0-0.80-0.80","82","40zjl65y","high"
"5","1","fixed","5","78","67","blue-204","blue","12085","sampling-task","95","1116586","0.0-5.0-0.81-0.81","82","40zjl65y","high"
"5","2","fixed","5","78","86","blue-140","blue","1021","sampling-task","96","1118809","0.0-5.0-0.82-0.82","82","40zjl65y","high"
"5","3","fixed","5","78","71","blue-73","blue","782","sampling-task","97","1120954","0.0-5.0-0.83-0.83","82","40zjl65y","high"
"5","4","fixed","5","78","48","blue-158","blue","974","sampling-task","98","1123274","0.0-5.0-0.84-0.84","82","40zjl65y","high"
"5","5","fixed","5","78","52","blue-50","blue","1102","sampling-task","99","1125586","0.0-5.0-0.85-0.85","82","40zjl65y","high"
"6","1","free","220","111","100","purple-48","purple","3589","sampling-task","102","1148960","0.0-5.0-0.86-0.86","82","40zjl65y","high"
"6","2","free","220","111","106","purple-203","purple","542","sampling-task","103","1150408","0.0-5.0-0.87-0.87","82","40zjl65y","high"
"6","3","free","220","111","143","purple-220","purple","445","sampling-task","104","1151736","0.0-5.0-0.88-0.88","82","40zjl65y","high"
"6","4","free","220","111","147","purple-135","purple","645","sampling-task","105","1153560","0.0-5.0-0.89-0.89","82","40zjl65y","high"
"6","5","free","220","111","81","purple-33","purple","469","sampling-task","106","1158384","0.0-5.0-0.90-0.90","82","40zjl65y","high"
"6","6","free","220","111","87","purple-75","purple","550","sampling-task","107","1160160","0.0-5.0-0.91-0.91","82","40zjl65y","high"
"6","7","free","220","111","107","purple-101","purple","693","sampling-task","108","1161896","0.0-5.0-0.92-0.92","82","40zjl65y","high"
"6","8","free","220","111","145","purple-203","purple","478","sampling-task","109","1163368","0.0-5.0-0.93-0.93","82","40zjl65y","high"
"6","9","free","220","111","103","purple-168","purple","630","sampling-task","110","1165032","0.0-5.0-0.94-0.94","82","40zjl65y","high"
"6","10","free","220","111","97","purple-154","purple","477","sampling-task","111","1166392","0.0-5.0-0.95-0.95","82","40zjl65y","high"
"6","11","free","220","111","150","purple-220","purple","429","sampling-task","112","1167736","0.0-5.0-0.96-0.96","82","40zjl65y","high"
"6","12","free","220","111","118","purple-130","purple","437","sampling-task","113","1169192","0.0-5.0-0.97-0.97","82","40zjl65y","high"
"6","13","free","220","111","104","purple-45","purple","438","sampling-task","114","1171640","0.0-5.0-0.98-0.98","82","40zjl65y","high"
