"round_number","sample_number","sampling_type","nSamples","mean","feedback","stimulus","stimulus_colour","rt","trial_type","trial_index","time_elapsed","internal_node_id","participant","randomID","condition"
"1","1","fixed","20","96","34","blue-117","blue","5879","sampling-task","12","533728","0.0-5.0-0.0-0.0","51","vh7p8hcl","high"
"1","2","fixed","20","96","121","blue-192","blue","20486","sampling-task","13","557048","0.0-5.0-0.1-0.1","51","vh7p8hcl","high"
"1","3","fixed","20","96","111","blue-68","blue","3030","sampling-task","14","565368","0.0-5.0-0.2-0.2","51","vh7p8hcl","high"
"1","4","fixed","20","96","118","blue-203","blue","4366","sampling-task","15","570895","0.0-5.0-0.3-0.3","51","vh7p8hcl","high"
"1","5","fixed","20","96","140","blue-178","blue","782","sampling-task","16","573271","0.0-5.0-0.4-0.4","51","vh7p8hcl","high"
"1","6","fixed","20","96","119","blue-98","blue","1095","sampling-task","17","575807","0.0-5.0-0.5-0.5","51","vh7p8hcl","high"
"1","7","fixed","20","96","117","blue-116","blue","958","sampling-task","18","579103","0.0-5.0-0.6-0.6","51","vh7p8hcl","high"
"1","8","fixed","20","96","95","blue-76","blue","1255","sampling-task","19","582151","0.0-5.0-0.7-0.7","51","vh7p8hcl","high"
"1","9","fixed","20","96","78","blue-164","blue","743","sampling-task","20","583895","0.0-5.0-0.8-0.8","51","vh7p8hcl","high"
"1","10","fixed","20","96","53","blue-89","blue","887","sampling-task","21","586839","0.0-5.0-0.9-0.9","51","vh7p8hcl","high"
"1","11","fixed","20","96","92","blue-71","blue","1455","sampling-task","22","589391","0.0-5.0-0.10-0.10","51","vh7p8hcl","high"
"1","12","fixed","20","96","96","blue-71","blue","926","sampling-task","23","591311","0.0-5.0-0.11-0.11","51","vh7p8hcl","high"
"1","13","fixed","20","96","111","blue-19","blue","831","sampling-task","24","593664","0.0-5.0-0.12-0.12","51","vh7p8hcl","high"
"1","14","fixed","20","96","110","blue-90","blue","734","sampling-task","25","595615","0.0-5.0-0.13-0.13","51","vh7p8hcl","high"
"1","15","fixed","20","96","100","blue-21","blue","807","sampling-task","26","597559","0.0-5.0-0.14-0.14","51","vh7p8hcl","high"
"1","16","fixed","20","96","83","blue-210","blue","855","sampling-task","27","599591","0.0-5.0-0.15-0.15","51","vh7p8hcl","high"
"1","17","fixed","20","96","94","blue-50","blue","703","sampling-task","28","602352","0.0-5.0-0.16-0.16","51","vh7p8hcl","high"
"1","18","fixed","20","96","83","blue-53","blue","806","sampling-task","29","604223","0.0-5.0-0.17-0.17","51","vh7p8hcl","high"
"1","19","fixed","20","96","68","blue-167","blue","790","sampling-task","30","606087","0.0-5.0-0.18-0.18","51","vh7p8hcl","high"
"1","20","fixed","20","96","112","blue-134","blue","911","sampling-task","31","609463","0.0-5.0-0.19-0.19","51","vh7p8hcl","high"
"2","1","free","220","12","46","purple-15","purple","13765","sampling-task","34","661151","0.0-5.0-0.20-0.20","51","vh7p8hcl","high"
"2","2","free","220","12","17","purple-59","purple","1550","sampling-task","35","663967","0.0-5.0-0.21-0.21","51","vh7p8hcl","high"
"2","3","free","220","12","6","purple-54","purple","926","sampling-task","36","667199","0.0-5.0-0.22-0.22","51","vh7p8hcl","high"
"2","4","free","220","12","4","purple-198","purple","1110","sampling-task","37","669887","0.0-5.0-0.23-0.23","51","vh7p8hcl","high"
"2","5","free","220","12","49","purple-144","purple","639","sampling-task","38","671711","0.0-5.0-0.24-0.24","51","vh7p8hcl","high"
"2","6","free","220","12","-2","purple-197","purple","911","sampling-task","39","673775","0.0-5.0-0.25-0.25","51","vh7p8hcl","high"
"2","7","free","220","12","25","purple-24","purple","527","sampling-task","40","675239","0.0-5.0-0.26-0.26","51","vh7p8hcl","high"
"2","8","free","220","12","13","purple-9","purple","607","sampling-task","41","676871","0.0-5.0-0.27-0.27","51","vh7p8hcl","high"
"2","9","free","220","12","25","purple-39","purple","494","sampling-task","42","678359","0.0-5.0-0.28-0.28","51","vh7p8hcl","high"
"2","10","free","220","12","45","purple-153","purple","1030","sampling-task","43","680551","0.0-5.0-0.29-0.29","51","vh7p8hcl","high"
"3","1","fixed","5","36","24","green-105","green","2573","sampling-task","46","714975","0.0-5.0-0.30-0.30","51","vh7p8hcl","high"
"3","2","fixed","5","36","51","green-211","green","654","sampling-task","47","716926","0.0-5.0-0.31-0.31","51","vh7p8hcl","high"
"3","3","fixed","5","36","39","green-132","green","926","sampling-task","48","719230","0.0-5.0-0.32-0.32","51","vh7p8hcl","high"
"3","4","fixed","5","36","21","green-96","green","805","sampling-task","49","721007","0.0-5.0-0.33-0.33","51","vh7p8hcl","high"
"3","5","fixed","5","36","40","green-101","green","918","sampling-task","50","722911","0.0-5.0-0.34-0.34","51","vh7p8hcl","high"
"4","1","free","220","114","108","red-200","red","2349","sampling-task","53","741527","0.0-5.0-0.35-0.35","51","vh7p8hcl","high"
"4","2","free","220","114","83","red-91","red","750","sampling-task","54","743215","0.0-5.0-0.36-0.36","51","vh7p8hcl","high"
"4","3","free","220","114","92","red-43","red","630","sampling-task","55","744759","0.0-5.0-0.37-0.37","51","vh7p8hcl","high"
"4","4","free","220","114","138","red-173","red","701","sampling-task","56","747358","0.0-5.0-0.38-0.38","51","vh7p8hcl","high"
"4","5","free","220","114","102","red-76","red","558","sampling-task","57","749007","0.0-5.0-0.39-0.39","51","vh7p8hcl","high"
"4","6","free","220","114","88","red-32","red","654","sampling-task","58","751382","0.0-5.0-0.40-0.40","51","vh7p8hcl","high"
"5","1","fixed","10","51","41","yellow-8","yellow","6484","sampling-task","61","773958","0.0-5.0-0.41-0.41","51","vh7p8hcl","high"
"5","2","fixed","10","51","33","yellow-192","yellow","758","sampling-task","62","776310","0.0-5.0-0.42-0.42","51","vh7p8hcl","high"
"5","3","fixed","10","51","31","yellow-180","yellow","3438","sampling-task","63","780734","0.0-5.0-0.43-0.43","51","vh7p8hcl","high"
"5","4","fixed","10","51","12","yellow-177","yellow","774","sampling-task","64","783262","0.0-5.0-0.44-0.44","51","vh7p8hcl","high"
"5","5","fixed","10","51","43","yellow-129","yellow","1830","sampling-task","65","786486","0.0-5.0-0.45-0.45","51","vh7p8hcl","high"
"5","6","fixed","10","51","35","yellow-16","yellow","470","sampling-task","66","787942","0.0-5.0-0.46-0.46","51","vh7p8hcl","high"
"5","7","fixed","10","51","72","yellow-92","yellow","494","sampling-task","67","789430","0.0-5.0-0.47-0.47","51","vh7p8hcl","high"
"5","8","fixed","10","51","77","yellow-169","yellow","494","sampling-task","68","790942","0.0-5.0-0.48-0.48","51","vh7p8hcl","high"
"5","9","fixed","10","51","53","yellow-12","yellow","509","sampling-task","69","792350","0.0-5.0-0.49-0.49","51","vh7p8hcl","high"
"5","10","fixed","10","51","46","yellow-65","yellow","526","sampling-task","70","793950","0.0-5.0-0.50-0.50","51","vh7p8hcl","high"
"6","1","free","220","76","79","orange-203","orange","2661","sampling-task","73","816829","0.0-5.0-0.51-0.51","51","vh7p8hcl","high"
"6","2","free","220","76","56","orange-7","orange","662","sampling-task","74","818669","0.0-5.0-0.52-0.52","51","vh7p8hcl","high"
"6","3","free","220","76","72","orange-188","orange","615","sampling-task","75","820237","0.0-5.0-0.53-0.53","51","vh7p8hcl","high"
"6","4","free","220","76","63","orange-69","orange","535","sampling-task","76","821805","0.0-5.0-0.54-0.54","51","vh7p8hcl","high"
"6","5","free","220","76","67","orange-91","orange","655","sampling-task","77","823349","0.0-5.0-0.55-0.55","51","vh7p8hcl","high"
"6","6","free","220","76","33","orange-136","orange","526","sampling-task","78","824725","0.0-5.0-0.56-0.56","51","vh7p8hcl","high"
"6","7","free","220","76","86","orange-57","orange","487","sampling-task","79","826141","0.0-5.0-0.57-0.57","51","vh7p8hcl","high"
"6","8","free","220","76","92","orange-70","orange","575","sampling-task","80","827581","0.0-5.0-0.58-0.58","51","vh7p8hcl","high"
"6","9","free","220","76","72","orange-218","orange","527","sampling-task","81","828981","0.0-5.0-0.59-0.59","51","vh7p8hcl","high"
"6","10","free","220","76","67","orange-176","orange","639","sampling-task","82","830445","0.0-5.0-0.60-0.60","51","vh7p8hcl","high"
"6","11","free","220","76","129","orange-18","orange","662","sampling-task","83","832205","0.0-5.0-0.61-0.61","51","vh7p8hcl","high"
"6","12","free","220","76","74","orange-145","orange","447","sampling-task","84","833901","0.0-5.0-0.62-0.62","51","vh7p8hcl","high"
"6","13","free","220","76","81","orange-185","orange","399","sampling-task","85","835421","0.0-5.0-0.63-0.63","51","vh7p8hcl","high"
