"round_number","sample_number","sampling_type","nSamples","mean","feedback","stimulus","stimulus_colour","rt","trial_type","trial_index","time_elapsed","internal_node_id","participant","randomID","condition"
"1","1","fixed","10","33","36","green-105","green","15349","sampling-task","12","435640","0.0-5.0-0.0-0.0","59","3w6a06sx","high"
"1","2","fixed","10","33","34","green-60","green","2013","sampling-task","13","451907","0.0-5.0-0.1-0.1","59","3w6a06sx","high"
"1","3","fixed","10","33","62","green-1","green","15622","sampling-task","14","469443","0.0-5.0-0.2-0.2","59","3w6a06sx","high"
"1","4","fixed","10","33","44","green-16","green","1886","sampling-task","15","473235","0.0-5.0-0.3-0.3","59","3w6a06sx","high"
"1","5","fixed","10","33","70","green-17","green","1047","sampling-task","16","475667","0.0-5.0-0.4-0.4","59","3w6a06sx","high"
"1","6","fixed","10","33","34","green-93","green","2102","sampling-task","17","479731","0.0-5.0-0.5-0.5","59","3w6a06sx","high"
"1","7","fixed","10","33","25","green-161","green","1263","sampling-task","18","482923","0.0-5.0-0.6-0.6","59","3w6a06sx","high"
"1","8","fixed","10","33","50","green-23","green","1015","sampling-task","19","484915","0.0-5.0-0.7-0.7","59","3w6a06sx","high"
"1","9","fixed","10","33","45","green-150","green","1127","sampling-task","20","487171","0.0-5.0-0.8-0.8","59","3w6a06sx","high"
"1","10","fixed","10","33","11","green-157","green","799","sampling-task","21","488987","0.0-5.0-0.9-0.9","59","3w6a06sx","high"
"2","1","free","220","12","28","purple-115","purple","6036","sampling-task","24","543847","0.0-5.0-0.10-0.10","59","3w6a06sx","high"
"2","2","free","220","12","6","purple-122","purple","662","sampling-task","25","550663","0.0-5.0-0.11-0.11","59","3w6a06sx","high"
"2","3","free","220","12","28","purple-33","purple","662","sampling-task","26","555159","0.0-5.0-0.12-0.12","59","3w6a06sx","high"
"2","4","free","220","12","-36","purple-44","purple","1014","sampling-task","27","562023","0.0-5.0-0.13-0.13","59","3w6a06sx","high"
"2","5","free","220","12","-1","purple-79","purple","830","sampling-task","28","564943","0.0-5.0-0.14-0.14","59","3w6a06sx","high"
"2","6","free","220","12","14","purple-168","purple","759","sampling-task","29","566983","0.0-5.0-0.15-0.15","59","3w6a06sx","high"
"2","7","free","220","12","9","purple-98","purple","758","sampling-task","30","569175","0.0-5.0-0.16-0.16","59","3w6a06sx","high"
"3","1","fixed","20","52","84","orange-109","orange","9485","sampling-task","33","604339","0.0-5.0-0.17-0.17","59","3w6a06sx","high"
"3","2","fixed","20","52","48","orange-109","orange","2270","sampling-task","34","608276","0.0-5.0-0.18-0.18","59","3w6a06sx","high"
"3","3","fixed","20","52","10","orange-34","orange","3094","sampling-task","35","613091","0.0-5.0-0.19-0.19","59","3w6a06sx","high"
"3","4","fixed","20","52","49","orange-205","orange","1982","sampling-task","36","618163","0.0-5.0-0.20-0.20","59","3w6a06sx","high"
"3","5","fixed","20","52","45","orange-51","orange","1014","sampling-task","37","620715","0.0-5.0-0.21-0.21","59","3w6a06sx","high"
"3","6","fixed","20","52","34","orange-3","orange","878","sampling-task","38","626531","0.0-5.0-0.22-0.22","59","3w6a06sx","high"
"3","7","fixed","20","52","49","orange-207","orange","870","sampling-task","39","630219","0.0-5.0-0.23-0.23","59","3w6a06sx","high"
"3","8","fixed","20","52","82","orange-175","orange","1011","sampling-task","40","635095","0.0-5.0-0.24-0.24","59","3w6a06sx","high"
"3","9","fixed","20","52","73","orange-128","orange","894","sampling-task","41","640103","0.0-5.0-0.25-0.25","59","3w6a06sx","high"
"3","10","fixed","20","52","47","orange-3","orange","966","sampling-task","42","643079","0.0-5.0-0.26-0.26","59","3w6a06sx","high"
"3","11","fixed","20","52","71","orange-72","orange","2166","sampling-task","43","646528","0.0-5.0-0.27-0.27","59","3w6a06sx","high"
"3","12","fixed","20","52","94","orange-87","orange","734","sampling-task","44","648391","0.0-5.0-0.28-0.28","59","3w6a06sx","high"
"3","13","fixed","20","52","63","orange-117","orange","1078","sampling-task","45","650415","0.0-5.0-0.29-0.29","59","3w6a06sx","high"
"3","14","fixed","20","52","50","orange-86","orange","575","sampling-task","46","651959","0.0-5.0-0.30-0.30","59","3w6a06sx","high"
"3","15","fixed","20","52","58","orange-66","orange","734","sampling-task","47","653607","0.0-5.0-0.31-0.31","59","3w6a06sx","high"
"3","16","fixed","20","52","40","orange-53","orange","526","sampling-task","48","655143","0.0-5.0-0.32-0.32","59","3w6a06sx","high"
"3","17","fixed","20","52","61","orange-79","orange","590","sampling-task","49","656927","0.0-5.0-0.33-0.33","59","3w6a06sx","high"
"3","18","fixed","20","52","41","orange-123","orange","1647","sampling-task","50","659647","0.0-5.0-0.34-0.34","59","3w6a06sx","high"
"3","19","fixed","20","52","83","orange-55","orange","590","sampling-task","51","661335","0.0-5.0-0.35-0.35","59","3w6a06sx","high"
"3","20","fixed","20","52","72","orange-116","orange","575","sampling-task","52","662823","0.0-5.0-0.36-0.36","59","3w6a06sx","high"
"4","1","free","220","112","83","yellow-144","yellow","4140","sampling-task","55","704420","0.0-5.0-0.37-0.37","59","3w6a06sx","high"
"4","2","free","220","112","118","yellow-128","yellow","502","sampling-task","56","708052","0.0-5.0-0.38-0.38","59","3w6a06sx","high"
"4","3","free","220","112","117","yellow-160","yellow","510","sampling-task","57","710164","0.0-5.0-0.39-0.39","59","3w6a06sx","high"
"4","4","free","220","112","120","yellow-147","yellow","566","sampling-task","58","712004","0.0-5.0-0.40-0.40","59","3w6a06sx","high"
"4","5","free","220","112","107","yellow-43","yellow","630","sampling-task","59","713540","0.0-5.0-0.41-0.41","59","3w6a06sx","high"
"4","6","free","220","112","88","yellow-82","yellow","461","sampling-task","60","715220","0.0-5.0-0.42-0.42","59","3w6a06sx","high"
"4","7","free","220","112","92","yellow-40","yellow","454","sampling-task","61","716900","0.0-5.0-0.43-0.43","59","3w6a06sx","high"
"4","8","free","220","112","126","yellow-85","yellow","470","sampling-task","62","718508","0.0-5.0-0.44-0.44","59","3w6a06sx","high"
"4","9","free","220","112","114","yellow-68","yellow","422","sampling-task","63","720516","0.0-5.0-0.45-0.45","59","3w6a06sx","high"
"4","10","free","220","112","126","yellow-184","yellow","390","sampling-task","64","722148","0.0-5.0-0.46-0.46","59","3w6a06sx","high"
"4","11","free","220","112","77","yellow-152","yellow","438","sampling-task","65","723692","0.0-5.0-0.47-0.47","59","3w6a06sx","high"
"4","12","free","220","112","117","yellow-121","yellow","406","sampling-task","66","725100","0.0-5.0-0.48-0.48","59","3w6a06sx","high"
"4","13","free","220","112","110","yellow-78","yellow","374","sampling-task","67","726388","0.0-5.0-0.49-0.49","59","3w6a06sx","high"
"4","14","free","220","112","113","yellow-46","yellow","350","sampling-task","68","728532","0.0-5.0-0.50-0.50","59","3w6a06sx","high"
"5","1","fixed","5","79","71","blue-214","blue","6985","sampling-task","71","763672","0.0-5.0-0.51-0.51","59","3w6a06sx","high"
"5","2","fixed","5","79","58","blue-155","blue","2142","sampling-task","72","767712","0.0-5.0-0.52-0.52","59","3w6a06sx","high"
"5","3","fixed","5","79","89","blue-185","blue","1086","sampling-task","73","771160","0.0-5.0-0.53-0.53","59","3w6a06sx","high"
"5","4","fixed","5","79","82","blue-51","blue","814","sampling-task","74","773032","0.0-5.0-0.54-0.54","59","3w6a06sx","high"
"5","5","fixed","5","79","73","blue-65","blue","526","sampling-task","75","774488","0.0-5.0-0.55-0.55","59","3w6a06sx","high"
"6","1","free","220","94","90","red-2","red","3724","sampling-task","78","805312","0.0-5.0-0.56-0.56","59","3w6a06sx","high"
"6","2","free","220","94","109","red-101","red","581","sampling-task","79","808072","0.0-5.0-0.57-0.57","59","3w6a06sx","high"
"6","3","free","220","94","99","red-75","red","478","sampling-task","80","809600","0.0-5.0-0.58-0.58","59","3w6a06sx","high"
"6","4","free","220","94","121","red-119","red","478","sampling-task","81","811432","0.0-5.0-0.59-0.59","59","3w6a06sx","high"
"6","5","free","220","94","82","red-118","red","454","sampling-task","82","815064","0.0-5.0-0.60-0.60","59","3w6a06sx","high"
"6","6","free","220","94","105","red-128","red","525","sampling-task","83","816584","0.0-5.0-0.61-0.61","59","3w6a06sx","high"
"6","7","free","220","94","99","red-157","red","494","sampling-task","84","818004","0.0-5.0-0.62-0.62","59","3w6a06sx","high"
"6","8","free","220","94","131","red-143","red","423","sampling-task","85","819604","0.0-5.0-0.63-0.63","59","3w6a06sx","high"
"6","9","free","220","94","91","red-118","red","406","sampling-task","86","821500","0.0-5.0-0.64-0.64","59","3w6a06sx","high"
"6","10","free","220","94","80","red-61","red","406","sampling-task","87","824036","0.0-5.0-0.65-0.65","59","3w6a06sx","high"
"6","11","free","220","94","76","red-67","red","502","sampling-task","88","825964","0.0-5.0-0.66-0.66","59","3w6a06sx","high"
"6","12","free","220","94","90","red-95","red","462","sampling-task","89","827652","0.0-5.0-0.67-0.67","59","3w6a06sx","high"
"6","13","free","220","94","83","red-58","red","494","sampling-task","90","829292","0.0-5.0-0.68-0.68","59","3w6a06sx","high"
"6","14","free","220","94","117","red-191","red","382","sampling-task","91","830772","0.0-5.0-0.69-0.69","59","3w6a06sx","high"
"6","15","free","220","94","107","red-35","red","383","sampling-task","92","832372","0.0-5.0-0.70-0.70","59","3w6a06sx","high"
