"round_number","sample_number","sampling_type","nSamples","mean","feedback","stimulus","stimulus_colour","rt","trial_type","trial_index","time_elapsed","internal_node_id","participant","randomID","condition"
"1","1","fixed","20","77","69","purple-220","purple","4679","sampling-task","6","356416","0.0-5.0-0.0-0.0","83","n4dp5nty","low"
"1","2","fixed","20","77","79","purple-220","purple","1469","sampling-task","7","359223","0.0-5.0-0.1-0.1","83","n4dp5nty","low"
"1","3","fixed","20","77","75","purple-220","purple","622","sampling-task","8","360823","0.0-5.0-0.2-0.2","83","n4dp5nty","low"
"1","4","fixed","20","77","62","purple-220","purple","1046","sampling-task","9","362847","0.0-5.0-0.3-0.3","83","n4dp5nty","low"
"1","5","fixed","20","77","85","purple-220","purple","566","sampling-task","10","364487","0.0-5.0-0.4-0.4","83","n4dp5nty","low"
"1","6","fixed","20","77","62","purple-220","purple","5942","sampling-task","11","371407","0.0-5.0-0.5-0.5","83","n4dp5nty","low"
"1","7","fixed","20","77","59","purple-220","purple","470","sampling-task","12","373335","0.0-5.0-0.6-0.6","83","n4dp5nty","low"
"1","8","fixed","20","77","70","purple-220","purple","445","sampling-task","13","374631","0.0-5.0-0.7-0.7","83","n4dp5nty","low"
"1","9","fixed","20","77","82","purple-220","purple","485","sampling-task","14","376095","0.0-5.0-0.8-0.8","83","n4dp5nty","low"
"1","10","fixed","20","77","57","purple-220","purple","429","sampling-task","15","377383","0.0-5.0-0.9-0.9","83","n4dp5nty","low"
"1","11","fixed","20","77","81","purple-220","purple","422","sampling-task","16","378727","0.0-5.0-0.10-0.10","83","n4dp5nty","low"
"1","12","fixed","20","77","41","purple-220","purple","493","sampling-task","17","380063","0.0-5.0-0.11-0.11","83","n4dp5nty","low"
"1","13","fixed","20","77","53","purple-220","purple","462","sampling-task","18","381367","0.0-5.0-0.12-0.12","83","n4dp5nty","low"
"1","14","fixed","20","77","88","purple-220","purple","430","sampling-task","19","382615","0.0-5.0-0.13-0.13","83","n4dp5nty","low"
"1","15","fixed","20","77","75","purple-220","purple","398","sampling-task","20","383839","0.0-5.0-0.14-0.14","83","n4dp5nty","low"
"1","16","fixed","20","77","83","purple-220","purple","422","sampling-task","21","385304","0.0-5.0-0.15-0.15","83","n4dp5nty","low"
"1","17","fixed","20","77","79","purple-220","purple","390","sampling-task","22","386543","0.0-5.0-0.16-0.16","83","n4dp5nty","low"
"1","18","fixed","20","77","60","purple-220","purple","446","sampling-task","23","387855","0.0-5.0-0.17-0.17","83","n4dp5nty","low"
"1","19","fixed","20","77","77","purple-220","purple","398","sampling-task","24","389095","0.0-5.0-0.18-0.18","83","n4dp5nty","low"
"1","20","fixed","20","77","67","purple-220","purple","518","sampling-task","25","391543","0.0-5.0-0.19-0.19","83","n4dp5nty","low"
"2","1","free","220","111","104","green-95","green","2252","sampling-task","28","426205","0.0-5.0-0.20-0.20","83","n4dp5nty","low"
"2","2","free","220","111","64","green-95","green","471","sampling-task","29","427565","0.0-5.0-0.21-0.21","83","n4dp5nty","low"
"2","3","free","220","111","104","green-95","green","487","sampling-task","30","428925","0.0-5.0-0.22-0.22","83","n4dp5nty","low"
"2","4","free","220","111","94","green-95","green","430","sampling-task","31","430477","0.0-5.0-0.23-0.23","83","n4dp5nty","low"
"2","5","free","220","111","118","green-95","green","421","sampling-task","32","431925","0.0-5.0-0.24-0.24","83","n4dp5nty","low"
"2","6","free","220","111","107","green-95","green","359","sampling-task","33","433157","0.0-5.0-0.25-0.25","83","n4dp5nty","low"
"2","7","free","220","111","143","green-95","green","381","sampling-task","34","434573","0.0-5.0-0.26-0.26","83","n4dp5nty","low"
"2","8","free","220","111","103","green-95","green","391","sampling-task","35","435781","0.0-5.0-0.27-0.27","83","n4dp5nty","low"
"2","9","free","220","111","126","green-95","green","422","sampling-task","36","437101","0.0-5.0-0.28-0.28","83","n4dp5nty","low"
"2","10","free","220","111","109","green-95","green","366","sampling-task","37","438325","0.0-5.0-0.29-0.29","83","n4dp5nty","low"
"2","11","free","220","111","81","green-95","green","366","sampling-task","38","439557","0.0-5.0-0.30-0.30","83","n4dp5nty","low"
"2","12","free","220","111","119","green-95","green","574","sampling-task","39","441005","0.0-5.0-0.31-0.31","83","n4dp5nty","low"
"2","13","free","220","111","79","green-95","green","373","sampling-task","40","442421","0.0-5.0-0.32-0.32","83","n4dp5nty","low"
"2","14","free","220","111","126","green-95","green","333","sampling-task","41","444141","0.0-5.0-0.33-0.33","83","n4dp5nty","low"
"3","1","fixed","5","58","65","red-106","red","2124","sampling-task","44","464677","0.0-5.0-0.34-0.34","83","n4dp5nty","low"
"3","2","fixed","5","58","55","red-106","red","350","sampling-task","45","465853","0.0-5.0-0.35-0.35","83","n4dp5nty","low"
"3","3","fixed","5","58","50","red-106","red","278","sampling-task","46","466853","0.0-5.0-0.36-0.36","83","n4dp5nty","low"
"3","4","fixed","5","58","68","red-106","red","349","sampling-task","47","468005","0.0-5.0-0.37-0.37","83","n4dp5nty","low"
"3","5","fixed","5","58","55","red-106","red","310","sampling-task","48","470117","0.0-5.0-0.38-0.38","83","n4dp5nty","low"
"4","1","free","220","30","44","blue-28","blue","1172","sampling-task","51","488811","0.0-5.0-0.39-0.39","83","n4dp5nty","low"
"4","2","free","220","30","18","blue-28","blue","341","sampling-task","52","489987","0.0-5.0-0.40-0.40","83","n4dp5nty","low"
"4","3","free","220","30","54","blue-28","blue","334","sampling-task","53","491179","0.0-5.0-0.41-0.41","83","n4dp5nty","low"
"4","4","free","220","30","16","blue-28","blue","365","sampling-task","54","492371","0.0-5.0-0.42-0.42","83","n4dp5nty","low"
"4","5","free","220","30","25","blue-28","blue","359","sampling-task","55","494323","0.0-5.0-0.43-0.43","83","n4dp5nty","low"
"4","6","free","220","30","39","blue-28","blue","398","sampling-task","56","495651","0.0-5.0-0.44-0.44","83","n4dp5nty","low"
"4","7","free","220","30","2","blue-28","blue","358","sampling-task","57","496859","0.0-5.0-0.45-0.45","83","n4dp5nty","low"
"4","8","free","220","30","47","blue-28","blue","318","sampling-task","58","498347","0.0-5.0-0.46-0.46","83","n4dp5nty","low"
"5","1","fixed","10","10","31","orange-101","orange","1764","sampling-task","61","517715","0.0-5.0-0.47-0.47","83","n4dp5nty","low"
"5","2","fixed","10","10","23","orange-101","orange","351","sampling-task","62","518955","0.0-5.0-0.48-0.48","83","n4dp5nty","low"
"5","3","fixed","10","10","37","orange-101","orange","783","sampling-task","63","520595","0.0-5.0-0.49-0.49","83","n4dp5nty","low"
"5","4","fixed","10","10","57","orange-101","orange","493","sampling-task","64","521923","0.0-5.0-0.50-0.50","83","n4dp5nty","low"
"5","5","fixed","10","10","7","orange-101","orange","422","sampling-task","65","523171","0.0-5.0-0.51-0.51","83","n4dp5nty","low"
"5","6","fixed","10","10","33","orange-101","orange","382","sampling-task","66","524347","0.0-5.0-0.52-0.52","83","n4dp5nty","low"
"5","7","fixed","10","10","-4","orange-101","orange","366","sampling-task","67","525563","0.0-5.0-0.53-0.53","83","n4dp5nty","low"
"5","8","fixed","10","10","-5","orange-101","orange","350","sampling-task","68","526747","0.0-5.0-0.54-0.54","83","n4dp5nty","low"
"5","9","fixed","10","10","3","orange-101","orange","349","sampling-task","69","528547","0.0-5.0-0.55-0.55","83","n4dp5nty","low"
"5","10","fixed","10","10","41","orange-101","orange","413","sampling-task","70","529803","0.0-5.0-0.56-0.56","83","n4dp5nty","low"
"6","1","free","220","99","88","yellow-128","yellow","1389","sampling-task","73","546426","0.0-5.0-0.57-0.57","83","n4dp5nty","low"
"6","2","free","220","99","120","yellow-128","yellow","318","sampling-task","74","548057","0.0-5.0-0.58-0.58","83","n4dp5nty","low"
"6","3","free","220","99","96","yellow-128","yellow","414","sampling-task","75","549513","0.0-5.0-0.59-0.59","83","n4dp5nty","low"
"6","4","free","220","99","91","yellow-128","yellow","406","sampling-task","76","550929","0.0-5.0-0.60-0.60","83","n4dp5nty","low"
"6","5","free","220","99","76","yellow-128","yellow","358","sampling-task","77","552241","0.0-5.0-0.61-0.61","83","n4dp5nty","low"
"6","6","free","220","99","128","yellow-128","yellow","318","sampling-task","78","553577","0.0-5.0-0.62-0.62","83","n4dp5nty","low"
