"round_number","sample_number","sampling_type","nSamples","mean","feedback","stimulus","stimulus_colour","rt","trial_type","trial_index","time_elapsed","internal_node_id","participant","randomID","condition"
"1","1","fixed","10","115","132","green-43","green","9895","sampling-task","6","239486","0.0-5.0-0.0-0.0","120","d0259dqv","low"
"1","2","fixed","10","115","99","green-43","green","3982","sampling-task","7","246150","0.0-5.0-0.1-0.1","120","d0259dqv","low"
"1","3","fixed","10","115","117","green-43","green","1567","sampling-task","8","250686","0.0-5.0-0.2-0.2","120","d0259dqv","low"
"1","4","fixed","10","115","92","green-43","green","2454","sampling-task","9","254902","0.0-5.0-0.3-0.3","120","d0259dqv","low"
"1","5","fixed","10","115","125","green-43","green","1223","sampling-task","10","258286","0.0-5.0-0.4-0.4","120","d0259dqv","low"
"1","6","fixed","10","115","88","green-43","green","1039","sampling-task","11","261157","0.0-5.0-0.5-0.5","120","d0259dqv","low"
"1","7","fixed","10","115","130","green-43","green","1174","sampling-task","12","265613","0.0-5.0-0.6-0.6","120","d0259dqv","low"
"1","8","fixed","10","115","148","green-43","green","1118","sampling-task","13","270949","0.0-5.0-0.7-0.7","120","d0259dqv","low"
"1","9","fixed","10","115","124","green-43","green","1198","sampling-task","14","275157","0.0-5.0-0.8-0.8","120","d0259dqv","low"
"1","10","fixed","10","115","149","green-43","green","2462","sampling-task","15","282621","0.0-5.0-0.9-0.9","120","d0259dqv","low"
"2","1","free","220","97","121","red-175","red","1459","sampling-task","18","322532","0.0-5.0-0.10-0.10","120","d0259dqv","low"
"2","2","free","220","97","67","red-175","red","463","sampling-task","19","324324","0.0-5.0-0.11-0.11","120","d0259dqv","low"
"2","3","free","220","97","96","red-175","red","407","sampling-task","20","326132","0.0-5.0-0.12-0.12","120","d0259dqv","low"
"2","4","free","220","97","86","red-175","red","319","sampling-task","21","328300","0.0-5.0-0.13-0.13","120","d0259dqv","low"
"2","5","free","220","97","64","red-175","red","367","sampling-task","22","329740","0.0-5.0-0.14-0.14","120","d0259dqv","low"
"2","6","free","220","97","59","red-175","red","343","sampling-task","23","331004","0.0-5.0-0.15-0.15","120","d0259dqv","low"
"2","7","free","220","97","62","red-175","red","407","sampling-task","24","333156","0.0-5.0-0.16-0.16","120","d0259dqv","low"
"2","8","free","220","97","82","red-175","red","367","sampling-task","25","336820","0.0-5.0-0.17-0.17","120","d0259dqv","low"
"2","9","free","220","97","90","red-175","red","406","sampling-task","26","338356","0.0-5.0-0.18-0.18","120","d0259dqv","low"
"2","10","free","220","97","90","red-175","red","367","sampling-task","27","340068","0.0-5.0-0.19-0.19","120","d0259dqv","low"
"2","11","free","220","97","81","red-175","red","295","sampling-task","28","341916","0.0-5.0-0.20-0.20","120","d0259dqv","low"
"2","12","free","220","97","112","red-175","red","246","sampling-task","29","343156","0.0-5.0-0.21-0.21","120","d0259dqv","low"
"2","13","free","220","97","67","red-175","red","327","sampling-task","30","344860","0.0-5.0-0.22-0.22","120","d0259dqv","low"
"3","1","fixed","20","78","99","blue-72","blue","2516","sampling-task","33","368980","0.0-5.0-0.23-0.23","120","d0259dqv","low"
"3","2","fixed","20","78","80","blue-72","blue","519","sampling-task","34","370540","0.0-5.0-0.24-0.24","120","d0259dqv","low"
"3","3","fixed","20","78","75","blue-72","blue","343","sampling-task","35","371884","0.0-5.0-0.25-0.25","120","d0259dqv","low"
"3","4","fixed","20","78","67","blue-72","blue","383","sampling-task","36","375660","0.0-5.0-0.26-0.26","120","d0259dqv","low"
"3","5","fixed","20","78","71","blue-72","blue","590","sampling-task","37","377116","0.0-5.0-0.27-0.27","120","d0259dqv","low"
"3","6","fixed","20","78","119","blue-72","blue","423","sampling-task","38","379588","0.0-5.0-0.28-0.28","120","d0259dqv","low"
"3","7","fixed","20","78","85","blue-72","blue","1389","sampling-task","39","382259","0.0-5.0-0.29-0.29","120","d0259dqv","low"
"3","8","fixed","20","78","67","blue-72","blue","350","sampling-task","40","384003","0.0-5.0-0.30-0.30","120","d0259dqv","low"
"3","9","fixed","20","78","87","blue-72","blue","358","sampling-task","41","385579","0.0-5.0-0.31-0.31","120","d0259dqv","low"
"3","10","fixed","20","78","82","blue-72","blue","574","sampling-task","42","387122","0.0-5.0-0.32-0.32","120","d0259dqv","low"
"3","11","fixed","20","78","49","blue-72","blue","326","sampling-task","43","390747","0.0-5.0-0.33-0.33","120","d0259dqv","low"
"3","12","fixed","20","78","119","blue-72","blue","886","sampling-task","44","392747","0.0-5.0-0.34-0.34","120","d0259dqv","low"
"3","13","fixed","20","78","70","blue-72","blue","350","sampling-task","45","394251","0.0-5.0-0.35-0.35","120","d0259dqv","low"
"3","14","fixed","20","78","57","blue-72","blue","310","sampling-task","46","395603","0.0-5.0-0.36-0.36","120","d0259dqv","low"
"3","15","fixed","20","78","114","blue-72","blue","318","sampling-task","47","397339","0.0-5.0-0.37-0.37","120","d0259dqv","low"
"3","16","fixed","20","78","61","blue-72","blue","349","sampling-task","48","399083","0.0-5.0-0.38-0.38","120","d0259dqv","low"
"3","17","fixed","20","78","78","blue-72","blue","350","sampling-task","49","400467","0.0-5.0-0.39-0.39","120","d0259dqv","low"
"3","18","fixed","20","78","73","blue-72","blue","334","sampling-task","50","402018","0.0-5.0-0.40-0.40","120","d0259dqv","low"
"3","19","fixed","20","78","73","blue-72","blue","583","sampling-task","51","403411","0.0-5.0-0.41-0.41","120","d0259dqv","low"
"3","20","fixed","20","78","86","blue-72","blue","374","sampling-task","52","404635","0.0-5.0-0.42-0.42","120","d0259dqv","low"
"4","1","free","220","33","16","purple-139","purple","1684","sampling-task","55","427147","0.0-5.0-0.43-0.43","120","d0259dqv","low"
"4","2","free","220","33","46","purple-139","purple","286","sampling-task","56","428507","0.0-5.0-0.44-0.44","120","d0259dqv","low"
"4","3","free","220","33","22","purple-139","purple","310","sampling-task","57","429963","0.0-5.0-0.45-0.45","120","d0259dqv","low"
"4","4","free","220","33","21","purple-139","purple","486","sampling-task","58","431331","0.0-5.0-0.46-0.46","120","d0259dqv","low"
"4","5","free","220","33","53","purple-139","purple","342","sampling-task","59","432634","0.0-5.0-0.47-0.47","120","d0259dqv","low"
"4","6","free","220","33","15","purple-139","purple","382","sampling-task","60","435283","0.0-5.0-0.48-0.48","120","d0259dqv","low"
"4","7","free","220","33","62","purple-139","purple","334","sampling-task","61","437171","0.0-5.0-0.49-0.49","120","d0259dqv","low"
"4","8","free","220","33","33","purple-139","purple","630","sampling-task","62","439075","0.0-5.0-0.50-0.50","120","d0259dqv","low"
"4","9","free","220","33","45","purple-139","purple","238","sampling-task","63","440448","0.0-5.0-0.51-0.51","120","d0259dqv","low"
"4","10","free","220","33","49","purple-139","purple","246","sampling-task","64","441577","0.0-5.0-0.52-0.52","120","d0259dqv","low"
"4","11","free","220","33","45","purple-139","purple","270","sampling-task","65","444153","0.0-5.0-0.53-0.53","120","d0259dqv","low"
"4","12","free","220","33","41","purple-139","purple","237","sampling-task","66","445345","0.0-5.0-0.54-0.54","120","d0259dqv","low"
"4","13","free","220","33","23","purple-139","purple","270","sampling-task","67","446936","0.0-5.0-0.55-0.55","120","d0259dqv","low"
"4","14","free","220","33","11","purple-139","purple","310","sampling-task","68","449033","0.0-5.0-0.56-0.56","120","d0259dqv","low"
"5","1","fixed","5","52","56","orange-83","orange","1772","sampling-task","71","466905","0.0-5.0-0.57-0.57","120","d0259dqv","low"
"5","2","fixed","5","52","86","orange-83","orange","350","sampling-task","72","468472","0.0-5.0-0.58-0.58","120","d0259dqv","low"
"5","3","fixed","5","52","59","orange-83","orange","454","sampling-task","73","470096","0.0-5.0-0.59-0.59","120","d0259dqv","low"
"5","4","fixed","5","52","34","orange-83","orange","542","sampling-task","74","472897","0.0-5.0-0.60-0.60","120","d0259dqv","low"
"5","5","fixed","5","52","72","orange-83","orange","526","sampling-task","75","475561","0.0-5.0-0.61-0.61","120","d0259dqv","low"
"6","1","free","220","19","32","yellow-119","yellow","1421","sampling-task","78","496633","0.0-5.0-0.62-0.62","120","d0259dqv","low"
"6","2","free","220","19","-2","yellow-119","yellow","390","sampling-task","79","499296","0.0-5.0-0.63-0.63","120","d0259dqv","low"
"6","3","free","220","19","10","yellow-119","yellow","358","sampling-task","80","501631","0.0-5.0-0.64-0.64","120","d0259dqv","low"
"6","4","free","220","19","44","yellow-119","yellow","614","sampling-task","81","504047","0.0-5.0-0.65-0.65","120","d0259dqv","low"
"6","5","free","220","19","9","yellow-119","yellow","326","sampling-task","82","505439","0.0-5.0-0.66-0.66","120","d0259dqv","low"
"6","6","free","220","19","46","yellow-119","yellow","310","sampling-task","83","506911","0.0-5.0-0.67-0.67","120","d0259dqv","low"
"6","7","free","220","19","13","yellow-119","yellow","326","sampling-task","84","508087","0.0-5.0-0.68-0.68","120","d0259dqv","low"
"6","8","free","220","19","7","yellow-119","yellow","326","sampling-task","85","509503","0.0-5.0-0.69-0.69","120","d0259dqv","low"
"6","9","free","220","19","-1","yellow-119","yellow","351","sampling-task","86","510703","0.0-5.0-0.70-0.70","120","d0259dqv","low"
"6","10","free","220","19","15","yellow-119","yellow","374","sampling-task","87","511927","0.0-5.0-0.71-0.71","120","d0259dqv","low"
"6","11","free","220","19","-1","yellow-119","yellow","342","sampling-task","88","513095","0.0-5.0-0.72-0.72","120","d0259dqv","low"
"6","12","free","220","19","45","yellow-119","yellow","294","sampling-task","89","514488","0.0-5.0-0.73-0.73","120","d0259dqv","low"
"6","13","free","220","19","-16","yellow-119","yellow","350","sampling-task","90","515711","0.0-5.0-0.74-0.74","120","d0259dqv","low"
"6","14","free","220","19","-3","yellow-119","yellow","638","sampling-task","91","518031","0.0-5.0-0.75-0.75","120","d0259dqv","low"
"6","15","free","220","19","-7","yellow-119","yellow","310","sampling-task","92","519984","0.0-5.0-0.76-0.76","120","d0259dqv","low"
"6","16","free","220","19","-11","yellow-119","yellow","741","sampling-task","93","521983","0.0-5.0-0.77-0.77","120","d0259dqv","low"
"6","17","free","220","19","20","yellow-119","yellow","326","sampling-task","94","523160","0.0-5.0-0.78-0.78","120","d0259dqv","low"
"6","18","free","220","19","12","yellow-119","yellow","302","sampling-task","95","525816","0.0-5.0-0.79-0.79","120","d0259dqv","low"
"6","19","free","220","19","38","yellow-119","yellow","398","sampling-task","96","527223","0.0-5.0-0.80-0.80","120","d0259dqv","low"
"6","20","free","220","19","26","yellow-119","yellow","398","sampling-task","97","528455","0.0-5.0-0.81-0.81","120","d0259dqv","low"
"6","21","free","220","19","15","yellow-119","yellow","342","sampling-task","98","530415","0.0-5.0-0.82-0.82","120","d0259dqv","low"
"6","22","free","220","19","25","yellow-119","yellow","294","sampling-task","99","531847","0.0-5.0-0.83-0.83","120","d0259dqv","low"
"6","23","free","220","19","55","yellow-119","yellow","1494","sampling-task","100","535591","0.0-5.0-0.84-0.84","120","d0259dqv","low"
