"round_number","sample_number","sampling_type","nSamples","mean","feedback","stimulus","stimulus_colour","rt","trial_type","trial_index","time_elapsed","internal_node_id","participant","randomID","condition"
"1","1","fixed","5","51","53","yellow-216","yellow","6104","sampling-task","6","550783","0.0-5.0-0.0-0.0","9","r4ptxw2x","high"
"1","2","fixed","5","51","82","yellow-179","yellow","1458","sampling-task","7","554099","0.0-5.0-0.1-0.1","9","r4ptxw2x","high"
"1","3","fixed","5","51","69","yellow-36","yellow","1366","sampling-task","8","557267","0.0-5.0-0.2-0.2","9","r4ptxw2x","high"
"1","4","fixed","5","51","44","yellow-21","yellow","1103","sampling-task","9","559772","0.0-5.0-0.3-0.3","9","r4ptxw2x","high"
"1","5","fixed","5","51","19","yellow-101","yellow","1054","sampling-task","10","563371","0.0-5.0-0.4-0.4","9","r4ptxw2x","high"
"2","1","free","220","19","37","blue-136","blue","3228","sampling-task","13","604851","0.0-5.0-0.5-0.5","9","r4ptxw2x","high"
"2","2","free","220","19","45","blue-198","blue","4094","sampling-task","14","612386","0.0-5.0-0.6-0.6","9","r4ptxw2x","high"
"2","3","free","220","19","3","blue-60","blue","750","sampling-task","15","614491","0.0-5.0-0.7-0.7","9","r4ptxw2x","high"
"2","4","free","220","19","33","blue-84","blue","886","sampling-task","16","616770","0.0-5.0-0.8-0.8","9","r4ptxw2x","high"
"2","5","free","220","19","37","blue-195","blue","495","sampling-task","17","618370","0.0-5.0-0.9-0.9","9","r4ptxw2x","high"
"2","6","free","220","19","29","blue-102","blue","566","sampling-task","18","620067","0.0-5.0-0.10-0.10","9","r4ptxw2x","high"
"2","7","free","220","19","35","blue-185","blue","542","sampling-task","19","621914","0.0-5.0-0.11-0.11","9","r4ptxw2x","high"
"2","8","free","220","19","50","blue-51","blue","550","sampling-task","20","628834","0.0-5.0-0.12-0.12","9","r4ptxw2x","high"
"2","9","free","220","19","-4","blue-73","blue","590","sampling-task","21","630634","0.0-5.0-0.13-0.13","9","r4ptxw2x","high"
"2","10","free","220","19","40","blue-70","blue","598","sampling-task","22","632458","0.0-5.0-0.14-0.14","9","r4ptxw2x","high"
"2","11","free","220","19","0","blue-29","blue","574","sampling-task","23","634514","0.0-5.0-0.15-0.15","9","r4ptxw2x","high"
"2","12","free","220","19","-3","blue-201","blue","670","sampling-task","24","636314","0.0-5.0-0.16-0.16","9","r4ptxw2x","high"
"2","13","free","220","19","31","blue-93","blue","534","sampling-task","25","638026","0.0-5.0-0.17-0.17","9","r4ptxw2x","high"
"2","14","free","220","19","12","blue-203","blue","534","sampling-task","26","639595","0.0-5.0-0.18-0.18","9","r4ptxw2x","high"
"2","15","free","220","19","13","blue-215","blue","486","sampling-task","27","641211","0.0-5.0-0.19-0.19","9","r4ptxw2x","high"
"2","16","free","220","19","23","blue-117","blue","438","sampling-task","28","642810","0.0-5.0-0.20-0.20","9","r4ptxw2x","high"
"2","17","free","220","19","16","blue-135","blue","406","sampling-task","29","644147","0.0-5.0-0.21-0.21","9","r4ptxw2x","high"
"2","18","free","220","19","25","blue-139","blue","430","sampling-task","30","645707","0.0-5.0-0.22-0.22","9","r4ptxw2x","high"
"2","19","free","220","19","18","blue-4","blue","438","sampling-task","31","647251","0.0-5.0-0.23-0.23","9","r4ptxw2x","high"
"2","20","free","220","19","37","blue-163","blue","422","sampling-task","32","649962","0.0-5.0-0.24-0.24","9","r4ptxw2x","high"
"2","21","free","220","19","23","blue-93","blue","430","sampling-task","33","651867","0.0-5.0-0.25-0.25","9","r4ptxw2x","high"
"2","22","free","220","19","40","blue-94","blue","470","sampling-task","34","655643","0.0-5.0-0.26-0.26","9","r4ptxw2x","high"
"2","23","free","220","19","28","blue-5","blue","638","sampling-task","35","657338","0.0-5.0-0.27-0.27","9","r4ptxw2x","high"
"2","24","free","220","19","-17","blue-189","blue","494","sampling-task","36","658914","0.0-5.0-0.28-0.28","9","r4ptxw2x","high"
"2","25","free","220","19","30","blue-107","blue","502","sampling-task","37","660531","0.0-5.0-0.29-0.29","9","r4ptxw2x","high"
"2","26","free","220","19","5","blue-77","blue","510","sampling-task","38","662115","0.0-5.0-0.30-0.30","9","r4ptxw2x","high"
"2","27","free","220","19","-1","blue-160","blue","478","sampling-task","39","663618","0.0-5.0-0.31-0.31","9","r4ptxw2x","high"
"2","28","free","220","19","8","blue-161","blue","534","sampling-task","40","665083","0.0-5.0-0.32-0.32","9","r4ptxw2x","high"
"2","29","free","220","19","-11","blue-181","blue","478","sampling-task","41","666514","0.0-5.0-0.33-0.33","9","r4ptxw2x","high"
"2","30","free","220","19","-11","blue-194","blue","446","sampling-task","42","668203","0.0-5.0-0.34-0.34","9","r4ptxw2x","high"
"2","31","free","220","19","24","blue-102","blue","390","sampling-task","43","669635","0.0-5.0-0.35-0.35","9","r4ptxw2x","high"
"2","32","free","220","19","37","blue-71","blue","462","sampling-task","44","671274","0.0-5.0-0.36-0.36","9","r4ptxw2x","high"
"2","33","free","220","19","29","blue-177","blue","454","sampling-task","45","672888","0.0-5.0-0.37-0.37","9","r4ptxw2x","high"
"2","34","free","220","19","64","blue-77","blue","422","sampling-task","46","674888","0.0-5.0-0.38-0.38","9","r4ptxw2x","high"
"3","1","fixed","20","111","115","purple-105","purple","2853","sampling-task","49","703544","0.0-5.0-0.39-0.39","9","r4ptxw2x","high"
"3","2","fixed","20","111","158","purple-57","purple","1342","sampling-task","50","708473","0.0-5.0-0.40-0.40","9","r4ptxw2x","high"
"3","3","fixed","20","111","118","purple-146","purple","606","sampling-task","51","711808","0.0-5.0-0.41-0.41","9","r4ptxw2x","high"
"3","4","fixed","20","111","79","purple-188","purple","630","sampling-task","52","715048","0.0-5.0-0.42-0.42","9","r4ptxw2x","high"
"3","5","fixed","20","111","100","purple-158","purple","1015","sampling-task","53","718800","0.0-5.0-0.43-0.43","9","r4ptxw2x","high"
"3","6","fixed","20","111","102","purple-124","purple","598","sampling-task","54","720417","0.0-5.0-0.44-0.44","9","r4ptxw2x","high"
"3","7","fixed","20","111","86","purple-106","purple","590","sampling-task","55","722064","0.0-5.0-0.45-0.45","9","r4ptxw2x","high"
"3","8","fixed","20","111","112","purple-2","purple","742","sampling-task","56","723920","0.0-5.0-0.46-0.46","9","r4ptxw2x","high"
"3","9","fixed","20","111","83","purple-35","purple","518","sampling-task","57","725728","0.0-5.0-0.47-0.47","9","r4ptxw2x","high"
"3","10","fixed","20","111","113","purple-97","purple","574","sampling-task","58","727688","0.0-5.0-0.48-0.48","9","r4ptxw2x","high"
"3","11","fixed","20","111","121","purple-2","purple","566","sampling-task","59","729392","0.0-5.0-0.49-0.49","9","r4ptxw2x","high"
"3","12","fixed","20","111","113","purple-47","purple","590","sampling-task","60","731128","0.0-5.0-0.50-0.50","9","r4ptxw2x","high"
"3","13","fixed","20","111","99","purple-20","purple","607","sampling-task","61","732982","0.0-5.0-0.51-0.51","9","r4ptxw2x","high"
"3","14","fixed","20","111","89","purple-113","purple","526","sampling-task","62","734478","0.0-5.0-0.52-0.52","9","r4ptxw2x","high"
"3","15","fixed","20","111","126","purple-184","purple","494","sampling-task","63","736150","0.0-5.0-0.53-0.53","9","r4ptxw2x","high"
"3","16","fixed","20","111","104","purple-153","purple","478","sampling-task","64","737662","0.0-5.0-0.54-0.54","9","r4ptxw2x","high"
"3","17","fixed","20","111","150","purple-78","purple","486","sampling-task","65","739254","0.0-5.0-0.55-0.55","9","r4ptxw2x","high"
"3","18","fixed","20","111","134","purple-190","purple","486","sampling-task","66","741046","0.0-5.0-0.56-0.56","9","r4ptxw2x","high"
"3","19","fixed","20","111","120","purple-198","purple","558","sampling-task","67","742846","0.0-5.0-0.57-0.57","9","r4ptxw2x","high"
"3","20","fixed","20","111","96","purple-165","purple","646","sampling-task","68","744893","0.0-5.0-0.58-0.58","9","r4ptxw2x","high"
"4","1","free","220","73","94","red-170","red","2677","sampling-task","71","777318","0.0-5.0-0.59-0.59","9","r4ptxw2x","high"
"4","2","free","220","73","73","red-68","red","686","sampling-task","72","779086","0.0-5.0-0.60-0.60","9","r4ptxw2x","high"
"4","3","free","220","73","67","red-47","red","510","sampling-task","73","780494","0.0-5.0-0.61-0.61","9","r4ptxw2x","high"
"4","4","free","220","73","72","red-127","red","526","sampling-task","74","781966","0.0-5.0-0.62-0.62","9","r4ptxw2x","high"
"4","5","free","220","73","94","red-164","red","533","sampling-task","75","783725","0.0-5.0-0.63-0.63","9","r4ptxw2x","high"
"4","6","free","220","73","89","red-93","red","494","sampling-task","76","785246","0.0-5.0-0.64-0.64","9","r4ptxw2x","high"
"4","7","free","220","73","67","red-122","red","486","sampling-task","77","786638","0.0-5.0-0.65-0.65","9","r4ptxw2x","high"
"4","8","free","220","73","48","red-112","red","430","sampling-task","78","787958","0.0-5.0-0.66-0.66","9","r4ptxw2x","high"
"4","9","free","220","73","72","red-202","red","454","sampling-task","79","789326","0.0-5.0-0.67-0.67","9","r4ptxw2x","high"
"4","10","free","220","73","100","red-151","red","446","sampling-task","80","795355","0.0-5.0-0.68-0.68","9","r4ptxw2x","high"
"4","11","free","220","73","63","red-182","red","430","sampling-task","81","796619","0.0-5.0-0.69-0.69","9","r4ptxw2x","high"
"4","12","free","220","73","87","red-9","red","422","sampling-task","82","797931","0.0-5.0-0.70-0.70","9","r4ptxw2x","high"
"4","13","free","220","73","78","red-88","red","462","sampling-task","83","799243","0.0-5.0-0.71-0.71","9","r4ptxw2x","high"
"4","14","free","220","73","57","red-3","red","430","sampling-task","84","800531","0.0-5.0-0.72-0.72","9","r4ptxw2x","high"
"4","15","free","220","73","58","red-146","red","366","sampling-task","85","801779","0.0-5.0-0.73-0.73","9","r4ptxw2x","high"
"4","16","free","220","73","72","red-198","red","382","sampling-task","86","803043","0.0-5.0-0.74-0.74","9","r4ptxw2x","high"
"4","17","free","220","73","77","red-212","red","406","sampling-task","87","805027","0.0-5.0-0.75-0.75","9","r4ptxw2x","high"
"4","18","free","220","73","54","red-92","red","382","sampling-task","88","806275","0.0-5.0-0.76-0.76","9","r4ptxw2x","high"
"4","19","free","220","73","100","red-171","red","518","sampling-task","89","809355","0.0-5.0-0.77-0.77","9","r4ptxw2x","high"
"5","1","fixed","10","37","51","orange-8","orange","2237","sampling-task","92","837851","0.0-5.0-0.78-0.78","9","r4ptxw2x","high"
"5","2","fixed","10","37","71","orange-201","orange","1494","sampling-task","93","840291","0.0-5.0-0.79-0.79","9","r4ptxw2x","high"
"5","3","fixed","10","37","47","orange-124","orange","438","sampling-task","94","841899","0.0-5.0-0.80-0.80","9","r4ptxw2x","high"
"5","4","fixed","10","37","41","orange-70","orange","470","sampling-task","95","843515","0.0-5.0-0.81-0.81","9","r4ptxw2x","high"
"5","5","fixed","10","37","39","orange-42","orange","518","sampling-task","96","846083","0.0-5.0-0.82-0.82","9","r4ptxw2x","high"
"5","6","fixed","10","37","40","orange-125","orange","678","sampling-task","97","848435","0.0-5.0-0.83-0.83","9","r4ptxw2x","high"
"5","7","fixed","10","37","43","orange-58","orange","502","sampling-task","98","850139","0.0-5.0-0.84-0.84","9","r4ptxw2x","high"
"5","8","fixed","10","37","30","orange-32","orange","542","sampling-task","99","851708","0.0-5.0-0.85-0.85","9","r4ptxw2x","high"
"5","9","fixed","10","37","48","orange-115","orange","572","sampling-task","100","853202","0.0-5.0-0.86-0.86","9","r4ptxw2x","high"
"5","10","fixed","10","37","65","orange-145","orange","510","sampling-task","101","854674","0.0-5.0-0.87-0.87","9","r4ptxw2x","high"
"6","1","free","220","90","96","green-130","green","1613","sampling-task","104","876090","0.0-5.0-0.88-0.88","9","r4ptxw2x","high"
"6","2","free","220","90","60","green-44","green","486","sampling-task","105","877490","0.0-5.0-0.89-0.89","9","r4ptxw2x","high"
"6","3","free","220","90","88","green-154","green","445","sampling-task","106","879034","0.0-5.0-0.90-0.90","9","r4ptxw2x","high"
"6","4","free","220","90","115","green-174","green","502","sampling-task","107","880474","0.0-5.0-0.91-0.91","9","r4ptxw2x","high"
"6","5","free","220","90","105","green-200","green","540","sampling-task","108","882410","0.0-5.0-0.92-0.92","9","r4ptxw2x","high"
"6","6","free","220","90","102","green-204","green","437","sampling-task","109","883930","0.0-5.0-0.93-0.93","9","r4ptxw2x","high"
"6","7","free","220","90","81","green-42","green","486","sampling-task","110","885954","0.0-5.0-0.94-0.94","9","r4ptxw2x","high"
"6","8","free","220","90","88","green-179","green","494","sampling-task","111","887594","0.0-5.0-0.95-0.95","9","r4ptxw2x","high"
"6","9","free","220","90","100","green-123","green","494","sampling-task","112","889442","0.0-5.0-0.96-0.96","9","r4ptxw2x","high"
"6","10","free","220","90","70","green-60","green","467","sampling-task","113","890906","0.0-5.0-0.97-0.97","9","r4ptxw2x","high"
"6","11","free","220","90","65","green-210","green","454","sampling-task","114","892306","0.0-5.0-0.98-0.98","9","r4ptxw2x","high"
"6","12","free","220","90","41","green-165","green","486","sampling-task","115","894370","0.0-5.0-0.99-0.99","9","r4ptxw2x","high"
"6","13","free","220","90","108","green-81","green","462","sampling-task","116","896226","0.0-5.0-0.100-0.100","9","r4ptxw2x","high"
