"round_number","sample_number","sampling_type","nSamples","mean","feedback","stimulus","stimulus_colour","rt","trial_type","trial_index","time_elapsed","internal_node_id","participant","randomID","condition"
"1","1","fixed","5","32","29","blue-210","blue","16432","sampling-task","6","-60864","0.0-5.0-0.0-0.0","76","pe9suv47","low"
"1","2","fixed","5","32","-9","blue-210","blue","1420","sampling-task","7","-58088","0.0-5.0-0.1-0.1","76","pe9suv47","low"
"1","3","fixed","5","32","35","blue-210","blue","902","sampling-task","8","-44000","0.0-5.0-0.2-0.2","76","pe9suv47","low"
"1","4","fixed","5","32","11","blue-210","blue","638","sampling-task","9","-41968","0.0-5.0-0.3-0.3","76","pe9suv47","low"
"1","5","fixed","5","32","32","blue-210","blue","678","sampling-task","10","-39504","0.0-5.0-0.4-0.4","76","pe9suv47","low"
"2","1","free","220","12","-5","green-200","green","2514","sampling-task","13","7447","0.0-5.0-0.5-0.5","76","pe9suv47","low"
"2","2","free","220","12","-14","green-200","green","469","sampling-task","14","8799","0.0-5.0-0.6-0.6","76","pe9suv47","low"
"2","3","free","220","12","34","green-200","green","342","sampling-task","15","12704","0.0-5.0-0.7-0.7","76","pe9suv47","low"
"2","4","free","220","12","31","green-200","green","437","sampling-task","16","15175","0.0-5.0-0.8-0.8","76","pe9suv47","low"
"2","5","free","220","12","6","green-200","green","382","sampling-task","17","17031","0.0-5.0-0.9-0.9","76","pe9suv47","low"
"2","6","free","220","12","18","green-200","green","397","sampling-task","18","18856","0.0-5.0-0.10-0.10","76","pe9suv47","low"
"2","7","free","220","12","20","green-200","green","414","sampling-task","19","20175","0.0-5.0-0.11-0.11","76","pe9suv47","low"
"2","8","free","220","12","26","green-200","green","374","sampling-task","20","21535","0.0-5.0-0.12-0.12","76","pe9suv47","low"
"2","9","free","220","12","6","green-200","green","365","sampling-task","21","22743","0.0-5.0-0.13-0.13","76","pe9suv47","low"
"2","10","free","220","12","-7","green-200","green","301","sampling-task","22","23943","0.0-5.0-0.14-0.14","76","pe9suv47","low"
"2","11","free","220","12","-6","green-200","green","334","sampling-task","23","25120","0.0-5.0-0.15-0.15","76","pe9suv47","low"
"2","12","free","220","12","2","green-200","green","294","sampling-task","24","27072","0.0-5.0-0.16-0.16","76","pe9suv47","low"
"2","13","free","220","12","2","green-200","green","317","sampling-task","25","28375","0.0-5.0-0.17-0.17","76","pe9suv47","low"
"2","14","free","220","12","-5","green-200","green","305","sampling-task","26","29496","0.0-5.0-0.18-0.18","76","pe9suv47","low"
"2","15","free","220","12","26","green-200","green","302","sampling-task","27","30623","0.0-5.0-0.19-0.19","76","pe9suv47","low"
"2","16","free","220","12","36","green-200","green","649","sampling-task","28","32247","0.0-5.0-0.20-0.20","76","pe9suv47","low"
"2","17","free","220","12","4","green-200","green","373","sampling-task","29","33927","0.0-5.0-0.21-0.21","76","pe9suv47","low"
"2","18","free","220","12","-3","green-200","green","302","sampling-task","30","35071","0.0-5.0-0.22-0.22","76","pe9suv47","low"
"2","19","free","220","12","31","green-200","green","350","sampling-task","31","36279","0.0-5.0-0.23-0.23","76","pe9suv47","low"
"2","20","free","220","12","36","green-200","green","373","sampling-task","32","37511","0.0-5.0-0.24-0.24","76","pe9suv47","low"
"2","21","free","220","12","7","green-200","green","348","sampling-task","33","38719","0.0-5.0-0.25-0.25","76","pe9suv47","low"
"2","22","free","220","12","-39","green-200","green","822","sampling-task","34","40815","0.0-5.0-0.26-0.26","76","pe9suv47","low"
"2","23","free","220","12","27","green-200","green","430","sampling-task","35","42271","0.0-5.0-0.27-0.27","76","pe9suv47","low"
"3","1","fixed","10","70","69","yellow-156","yellow","1900","sampling-task","38","72631","0.0-5.0-0.28-0.28","76","pe9suv47","low"
"3","2","fixed","10","70","80","yellow-156","yellow","415","sampling-task","39","74119","0.0-5.0-0.29-0.29","76","pe9suv47","low"
"3","3","fixed","10","70","58","yellow-156","yellow","366","sampling-task","40","75399","0.0-5.0-0.30-0.30","76","pe9suv47","low"
"3","4","fixed","10","70","88","yellow-156","yellow","391","sampling-task","41","76639","0.0-5.0-0.31-0.31","76","pe9suv47","low"
"3","5","fixed","10","70","71","yellow-156","yellow","366","sampling-task","42","78479","0.0-5.0-0.32-0.32","76","pe9suv47","low"
"3","6","fixed","10","70","51","yellow-156","yellow","342","sampling-task","43","79615","0.0-5.0-0.33-0.33","76","pe9suv47","low"
"3","7","fixed","10","70","51","yellow-156","yellow","350","sampling-task","44","81527","0.0-5.0-0.34-0.34","76","pe9suv47","low"
"3","8","fixed","10","70","81","yellow-156","yellow","343","sampling-task","45","82807","0.0-5.0-0.35-0.35","76","pe9suv47","low"
"3","9","fixed","10","70","55","yellow-156","yellow","350","sampling-task","46","83959","0.0-5.0-0.36-0.36","76","pe9suv47","low"
"3","10","fixed","10","70","68","yellow-156","yellow","375","sampling-task","47","86095","0.0-5.0-0.37-0.37","76","pe9suv47","low"
"4","1","free","220","114","97","purple-76","purple","2451","sampling-task","50","108311","0.0-5.0-0.38-0.38","76","pe9suv47","low"
"4","2","free","220","114","140","purple-76","purple","398","sampling-task","51","109559","0.0-5.0-0.39-0.39","76","pe9suv47","low"
"4","3","free","220","114","117","purple-76","purple","335","sampling-task","52","110672","0.0-5.0-0.40-0.40","76","pe9suv47","low"
"4","4","free","220","114","101","purple-76","purple","326","sampling-task","53","111808","0.0-5.0-0.41-0.41","76","pe9suv47","low"
"4","5","free","220","114","88","purple-76","purple","310","sampling-task","54","112879","0.0-5.0-0.42-0.42","76","pe9suv47","low"
"4","6","free","220","114","110","purple-76","purple","333","sampling-task","55","113991","0.0-5.0-0.43-0.43","76","pe9suv47","low"
"4","7","free","220","114","122","purple-76","purple","303","sampling-task","56","115080","0.0-5.0-0.44-0.44","76","pe9suv47","low"
"4","8","free","220","114","109","purple-76","purple","325","sampling-task","57","116256","0.0-5.0-0.45-0.45","76","pe9suv47","low"
"4","9","free","220","114","110","purple-76","purple","318","sampling-task","58","117479","0.0-5.0-0.46-0.46","76","pe9suv47","low"
"4","10","free","220","114","105","purple-76","purple","366","sampling-task","59","118655","0.0-5.0-0.47-0.47","76","pe9suv47","low"
"4","11","free","220","114","138","purple-76","purple","334","sampling-task","60","119752","0.0-5.0-0.48-0.48","76","pe9suv47","low"
"4","12","free","220","114","104","purple-76","purple","326","sampling-task","61","120887","0.0-5.0-0.49-0.49","76","pe9suv47","low"
"4","13","free","220","114","82","purple-76","purple","334","sampling-task","62","122063","0.0-5.0-0.50-0.50","76","pe9suv47","low"
"4","14","free","220","114","91","purple-76","purple","318","sampling-task","63","123423","0.0-5.0-0.51-0.51","76","pe9suv47","low"
"4","15","free","220","114","97","purple-76","purple","398","sampling-task","64","124679","0.0-5.0-0.52-0.52","76","pe9suv47","low"
"4","16","free","220","114","103","purple-76","purple","318","sampling-task","65","125815","0.0-5.0-0.53-0.53","76","pe9suv47","low"
"4","17","free","220","114","136","purple-76","purple","405","sampling-task","66","127031","0.0-5.0-0.54-0.54","76","pe9suv47","low"
"4","18","free","220","114","83","purple-76","purple","383","sampling-task","67","128215","0.0-5.0-0.55-0.55","76","pe9suv47","low"
"4","19","free","220","114","109","purple-76","purple","462","sampling-task","68","129519","0.0-5.0-0.56-0.56","76","pe9suv47","low"
"4","20","free","220","114","127","purple-76","purple","398","sampling-task","69","130959","0.0-5.0-0.57-0.57","76","pe9suv47","low"
"4","21","free","220","114","118","purple-76","purple","286","sampling-task","70","132063","0.0-5.0-0.58-0.58","76","pe9suv47","low"
"4","22","free","220","114","88","purple-76","purple","526","sampling-task","71","133360","0.0-5.0-0.59-0.59","76","pe9suv47","low"
"4","23","free","220","114","86","purple-76","purple","262","sampling-task","72","134384","0.0-5.0-0.60-0.60","76","pe9suv47","low"
"4","24","free","220","114","113","purple-76","purple","286","sampling-task","73","135463","0.0-5.0-0.61-0.61","76","pe9suv47","low"
"4","25","free","220","114","81","purple-76","purple","310","sampling-task","74","137023","0.0-5.0-0.62-0.62","76","pe9suv47","low"
"4","26","free","220","114","119","purple-76","purple","278","sampling-task","75","138111","0.0-5.0-0.63-0.63","76","pe9suv47","low"
"4","27","free","220","114","104","purple-76","purple","446","sampling-task","76","139487","0.0-5.0-0.64-0.64","76","pe9suv47","low"
"4","28","free","220","114","164","purple-76","purple","662","sampling-task","77","141175","0.0-5.0-0.65-0.65","76","pe9suv47","low"
"5","1","fixed","20","93","69","orange-9","orange","1981","sampling-task","80","169127","0.0-5.0-0.66-0.66","76","pe9suv47","low"
"5","2","fixed","20","93","78","orange-9","orange","494","sampling-task","81","170887","0.0-5.0-0.67-0.67","76","pe9suv47","low"
"5","3","fixed","20","93","94","orange-9","orange","373","sampling-task","82","172071","0.0-5.0-0.68-0.68","76","pe9suv47","low"
"5","4","fixed","20","93","79","orange-9","orange","335","sampling-task","83","173088","0.0-5.0-0.69-0.69","76","pe9suv47","low"
"5","5","fixed","20","93","137","orange-9","orange","365","sampling-task","84","174327","0.0-5.0-0.70-0.70","76","pe9suv47","low"
"5","6","fixed","20","93","108","orange-9","orange","334","sampling-task","85","175455","0.0-5.0-0.71-0.71","76","pe9suv47","low"
"5","7","fixed","20","93","110","orange-9","orange","350","sampling-task","86","176559","0.0-5.0-0.72-0.72","76","pe9suv47","low"
"5","8","fixed","20","93","104","orange-9","orange","334","sampling-task","87","177719","0.0-5.0-0.73-0.73","76","pe9suv47","low"
"5","9","fixed","20","93","109","orange-9","orange","382","sampling-task","88","178879","0.0-5.0-0.74-0.74","76","pe9suv47","low"
"5","10","fixed","20","93","105","orange-9","orange","374","sampling-task","89","180007","0.0-5.0-0.75-0.75","76","pe9suv47","low"
"5","11","fixed","20","93","153","orange-9","orange","350","sampling-task","90","181183","0.0-5.0-0.76-0.76","76","pe9suv47","low"
"5","12","fixed","20","93","85","orange-9","orange","358","sampling-task","91","185487","0.0-5.0-0.77-0.77","76","pe9suv47","low"
"5","13","fixed","20","93","103","orange-9","orange","366","sampling-task","92","189535","0.0-5.0-0.78-0.78","76","pe9suv47","low"
"5","14","fixed","20","93","79","orange-9","orange","374","sampling-task","93","191239","0.0-5.0-0.79-0.79","76","pe9suv47","low"
"5","15","fixed","20","93","103","orange-9","orange","326","sampling-task","94","192375","0.0-5.0-0.80-0.80","76","pe9suv47","low"
"5","16","fixed","20","93","57","orange-9","orange","303","sampling-task","95","193455","0.0-5.0-0.81-0.81","76","pe9suv47","low"
"5","17","fixed","20","93","79","orange-9","orange","326","sampling-task","96","194535","0.0-5.0-0.82-0.82","76","pe9suv47","low"
"5","18","fixed","20","93","76","orange-9","orange","382","sampling-task","97","195791","0.0-5.0-0.83-0.83","76","pe9suv47","low"
"5","19","fixed","20","93","90","orange-9","orange","462","sampling-task","98","197416","0.0-5.0-0.84-0.84","76","pe9suv47","low"
"5","20","fixed","20","93","72","orange-9","orange","350","sampling-task","99","198951","0.0-5.0-0.85-0.85","76","pe9suv47","low"
"6","1","free","220","56","68","red-35","red","1229","sampling-task","102","224759","0.0-5.0-0.86-0.86","76","pe9suv47","low"
"6","2","free","220","56","62","red-35","red","318","sampling-task","103","225856","0.0-5.0-0.87-0.87","76","pe9suv47","low"
"6","3","free","220","56","44","red-35","red","302","sampling-task","104","226936","0.0-5.0-0.88-0.88","76","pe9suv47","low"
"6","4","free","220","56","57","red-35","red","485","sampling-task","105","228160","0.0-5.0-0.89-0.89","76","pe9suv47","low"
"6","5","free","220","56","24","red-35","red","310","sampling-task","106","229224","0.0-5.0-0.90-0.90","76","pe9suv47","low"
"6","6","free","220","56","22","red-35","red","350","sampling-task","107","230272","0.0-5.0-0.91-0.91","76","pe9suv47","low"
"6","7","free","220","56","62","red-35","red","358","sampling-task","108","231311","0.0-5.0-0.92-0.92","76","pe9suv47","low"
"6","8","free","220","56","78","red-35","red","309","sampling-task","109","232328","0.0-5.0-0.93-0.93","76","pe9suv47","low"
"6","9","free","220","56","80","red-35","red","334","sampling-task","110","233360","0.0-5.0-0.94-0.94","76","pe9suv47","low"
"6","10","free","220","56","84","red-35","red","318","sampling-task","111","234904","0.0-5.0-0.95-0.95","76","pe9suv47","low"
"6","11","free","220","56","19","red-35","red","277","sampling-task","112","235984","0.0-5.0-0.96-0.96","76","pe9suv47","low"
"6","12","free","220","56","19","red-35","red","262","sampling-task","113","238792","0.0-5.0-0.97-0.97","76","pe9suv47","low"
"6","13","free","220","56","50","red-35","red","373","sampling-task","114","239983","0.0-5.0-0.98-0.98","76","pe9suv47","low"
"6","14","free","220","56","31","red-35","red","310","sampling-task","115","241008","0.0-5.0-0.99-0.99","76","pe9suv47","low"
"6","15","free","220","56","46","red-35","red","326","sampling-task","116","242112","0.0-5.0-0.100-0.100","76","pe9suv47","low"
"6","16","free","220","56","49","red-35","red","438","sampling-task","117","243367","0.0-5.0-0.101-0.101","76","pe9suv47","low"
"6","17","free","220","56","86","red-35","red","278","sampling-task","118","244624","0.0-5.0-0.102-0.102","76","pe9suv47","low"
"6","18","free","220","56","81","red-35","red","277","sampling-task","119","245727","0.0-5.0-0.103-0.103","76","pe9suv47","low"
"6","19","free","220","56","98","red-35","red","342","sampling-task","120","246895","0.0-5.0-0.104-0.104","76","pe9suv47","low"
"6","20","free","220","56","41","red-35","red","374","sampling-task","121","248056","0.0-5.0-0.105-0.105","76","pe9suv47","low"
"6","21","free","220","56","48","red-35","red","358","sampling-task","122","249191","0.0-5.0-0.106-0.106","76","pe9suv47","low"
"6","22","free","220","56","59","red-35","red","414","sampling-task","123","250360","0.0-5.0-0.107-0.107","76","pe9suv47","low"
"6","23","free","220","56","80","red-35","red","358","sampling-task","124","251440","0.0-5.0-0.108-0.108","76","pe9suv47","low"
"6","24","free","220","56","92","red-35","red","326","sampling-task","125","252544","0.0-5.0-0.109-0.109","76","pe9suv47","low"
"6","25","free","220","56","74","red-35","red","333","sampling-task","126","253584","0.0-5.0-0.110-0.110","76","pe9suv47","low"
"6","26","free","220","56","64","red-35","red","326","sampling-task","127","254544","0.0-5.0-0.111-0.111","76","pe9suv47","low"
"6","27","free","220","56","63","red-35","red","333","sampling-task","128","255968","0.0-5.0-0.112-0.112","76","pe9suv47","low"
"6","28","free","220","56","76","red-35","red","301","sampling-task","129","257119","0.0-5.0-0.113-0.113","76","pe9suv47","low"
"6","29","free","220","56","72","red-35","red","278","sampling-task","130","259024","0.0-5.0-0.114-0.114","76","pe9suv47","low"
"6","30","free","220","56","24","red-35","red","277","sampling-task","131","259968","0.0-5.0-0.115-0.115","76","pe9suv47","low"
"6","31","free","220","56","46","red-35","red","317","sampling-task","132","261255","0.0-5.0-0.116-0.116","76","pe9suv47","low"
"6","32","free","220","56","36","red-35","red","485","sampling-task","133","262535","0.0-5.0-0.117-0.117","76","pe9suv47","low"
