"round_number","sample_number","sampling_type","nSamples","mean","feedback","stimulus","stimulus_colour","rt","trial_type","trial_index","time_elapsed","internal_node_id","participant","randomID","condition"
"1","1","fixed","20","96","130","yellow-148","yellow","7786","sampling-task","6","860190","0.0-5.0-0.0-0.0","116","d9b7m7vb","low"
"1","2","fixed","20","96","102","yellow-148","yellow","1517","sampling-task","7","865037","0.0-5.0-0.1-0.1","116","d9b7m7vb","low"
"1","3","fixed","20","96","90","yellow-148","yellow","910","sampling-task","8","868037","0.0-5.0-0.2-0.2","116","d9b7m7vb","low"
"1","4","fixed","20","96","70","yellow-148","yellow","1151","sampling-task","9","871181","0.0-5.0-0.3-0.3","116","d9b7m7vb","low"
"1","5","fixed","20","96","104","yellow-148","yellow","998","sampling-task","10","873805","0.0-5.0-0.4-0.4","116","d9b7m7vb","low"
"1","6","fixed","20","96","87","yellow-148","yellow","1047","sampling-task","11","876125","0.0-5.0-0.5-0.5","116","d9b7m7vb","low"
"1","7","fixed","20","96","117","yellow-148","yellow","774","sampling-task","12","878421","0.0-5.0-0.6-0.6","116","d9b7m7vb","low"
"1","8","fixed","20","96","84","yellow-148","yellow","686","sampling-task","13","880294","0.0-5.0-0.7-0.7","116","d9b7m7vb","low"
"1","9","fixed","20","96","62","yellow-148","yellow","806","sampling-task","14","882405","0.0-5.0-0.8-0.8","116","d9b7m7vb","low"
"1","10","fixed","20","96","66","yellow-148","yellow","750","sampling-task","15","884469","0.0-5.0-0.9-0.9","116","d9b7m7vb","low"
"1","11","fixed","20","96","102","yellow-148","yellow","638","sampling-task","16","886885","0.0-5.0-0.10-0.10","116","d9b7m7vb","low"
"1","12","fixed","20","96","101","yellow-148","yellow","966","sampling-task","17","889477","0.0-5.0-0.11-0.11","116","d9b7m7vb","low"
"1","13","fixed","20","96","85","yellow-148","yellow","2382","sampling-task","18","906076","0.0-5.0-0.12-0.12","116","d9b7m7vb","low"
"1","14","fixed","20","96","91","yellow-148","yellow","590","sampling-task","19","907980","0.0-5.0-0.13-0.13","116","d9b7m7vb","low"
"1","15","fixed","20","96","96","yellow-148","yellow","719","sampling-task","20","909892","0.0-5.0-0.14-0.14","116","d9b7m7vb","low"
"1","16","fixed","20","96","76","yellow-148","yellow","694","sampling-task","21","912028","0.0-5.0-0.15-0.15","116","d9b7m7vb","low"
"1","17","fixed","20","96","106","yellow-148","yellow","719","sampling-task","22","913884","0.0-5.0-0.16-0.16","116","d9b7m7vb","low"
"1","18","fixed","20","96","84","yellow-148","yellow","670","sampling-task","23","916124","0.0-5.0-0.17-0.17","116","d9b7m7vb","low"
"1","19","fixed","20","96","77","yellow-148","yellow","789","sampling-task","24","918444","0.0-5.0-0.18-0.18","116","d9b7m7vb","low"
"1","20","fixed","20","96","144","yellow-148","yellow","678","sampling-task","25","921844","0.0-5.0-0.19-0.19","116","d9b7m7vb","low"
"2","1","free","220","35","45","red-75","red","5740","sampling-task","28","987908","0.0-5.0-0.20-0.20","116","d9b7m7vb","low"
"2","2","free","220","35","63","red-75","red","606","sampling-task","29","989652","0.0-5.0-0.21-0.21","116","d9b7m7vb","low"
"2","3","free","220","35","21","red-75","red","454","sampling-task","30","991044","0.0-5.0-0.22-0.22","116","d9b7m7vb","low"
"2","4","free","220","35","18","red-75","red","446","sampling-task","31","992379","0.0-5.0-0.23-0.23","116","d9b7m7vb","low"
"2","5","free","220","35","37","red-75","red","422","sampling-task","32","993740","0.0-5.0-0.24-0.24","116","d9b7m7vb","low"
"2","6","free","220","35","28","red-75","red","470","sampling-task","33","995252","0.0-5.0-0.25-0.25","116","d9b7m7vb","low"
"2","7","free","220","35","33","red-75","red","437","sampling-task","34","997067","0.0-5.0-0.26-0.26","116","d9b7m7vb","low"
"2","8","free","220","35","51","red-75","red","430","sampling-task","35","998419","0.0-5.0-0.27-0.27","116","d9b7m7vb","low"
"2","9","free","220","35","56","red-75","red","398","sampling-task","36","999948","0.0-5.0-0.28-0.28","116","d9b7m7vb","low"
"2","10","free","220","35","17","red-75","red","438","sampling-task","37","1001300","0.0-5.0-0.29-0.29","116","d9b7m7vb","low"
"2","11","free","220","35","34","red-75","red","438","sampling-task","38","1002812","0.0-5.0-0.30-0.30","116","d9b7m7vb","low"
"2","12","free","220","35","2","red-75","red","526","sampling-task","39","1004380","0.0-5.0-0.31-0.31","116","d9b7m7vb","low"
"2","13","free","220","35","35","red-75","red","486","sampling-task","40","1005780","0.0-5.0-0.32-0.32","116","d9b7m7vb","low"
"2","14","free","220","35","48","red-75","red","478","sampling-task","41","1007124","0.0-5.0-0.33-0.33","116","d9b7m7vb","low"
"2","15","free","220","35","62","red-75","red","462","sampling-task","42","1008716","0.0-5.0-0.34-0.34","116","d9b7m7vb","low"
"2","16","free","220","35","43","red-75","red","510","sampling-task","43","1010292","0.0-5.0-0.35-0.35","116","d9b7m7vb","low"
"2","17","free","220","35","84","red-75","red","429","sampling-task","44","1012196","0.0-5.0-0.36-0.36","116","d9b7m7vb","low"
"2","18","free","220","35","19","red-75","red","382","sampling-task","45","1013540","0.0-5.0-0.37-0.37","116","d9b7m7vb","low"
"2","19","free","220","35","15","red-75","red","414","sampling-task","46","1014796","0.0-5.0-0.38-0.38","116","d9b7m7vb","low"
"2","20","free","220","35","49","red-75","red","374","sampling-task","47","1017035","0.0-5.0-0.39-0.39","116","d9b7m7vb","low"
"3","1","fixed","5","52","44","blue-206","blue","2124","sampling-task","50","1046898","0.0-5.0-0.40-0.40","116","d9b7m7vb","low"
"3","2","fixed","5","52","78","blue-206","blue","678","sampling-task","51","1048706","0.0-5.0-0.41-0.41","116","d9b7m7vb","low"
"3","3","fixed","5","52","55","blue-206","blue","1463","sampling-task","52","1051794","0.0-5.0-0.42-0.42","116","d9b7m7vb","low"
"3","4","fixed","5","52","59","blue-206","blue","750","sampling-task","53","1053930","0.0-5.0-0.43-0.43","116","d9b7m7vb","low"
"3","5","fixed","5","52","26","blue-206","blue","1262","sampling-task","54","1056578","0.0-5.0-0.44-0.44","116","d9b7m7vb","low"
"4","1","free","220","10","-13","orange-76","orange","2125","sampling-task","57","1078202","0.0-5.0-0.45-0.45","116","d9b7m7vb","low"
"4","2","free","220","10","7","orange-76","orange","414","sampling-task","58","1079690","0.0-5.0-0.46-0.46","116","d9b7m7vb","low"
"4","3","free","220","10","42","orange-76","orange","366","sampling-task","59","1080930","0.0-5.0-0.47-0.47","116","d9b7m7vb","low"
"4","4","free","220","10","26","orange-76","orange","470","sampling-task","60","1082290","0.0-5.0-0.48-0.48","116","d9b7m7vb","low"
"4","5","free","220","10","-31","orange-76","orange","414","sampling-task","61","1083706","0.0-5.0-0.49-0.49","116","d9b7m7vb","low"
"4","6","free","220","10","-26","orange-76","orange","462","sampling-task","62","1085058","0.0-5.0-0.50-0.50","116","d9b7m7vb","low"
"4","7","free","220","10","-12","orange-76","orange","534","sampling-task","63","1086722","0.0-5.0-0.51-0.51","116","d9b7m7vb","low"
"4","8","free","220","10","-5","orange-76","orange","398","sampling-task","64","1088249","0.0-5.0-0.52-0.52","116","d9b7m7vb","low"
"4","9","free","220","10","0","orange-76","orange","454","sampling-task","65","1089608","0.0-5.0-0.53-0.53","116","d9b7m7vb","low"
"4","10","free","220","10","9","orange-76","orange","462","sampling-task","66","1091209","0.0-5.0-0.54-0.54","116","d9b7m7vb","low"
"4","11","free","220","10","32","orange-76","orange","430","sampling-task","67","1092769","0.0-5.0-0.55-0.55","116","d9b7m7vb","low"
"4","12","free","220","10","-13","orange-76","orange","438","sampling-task","68","1094136","0.0-5.0-0.56-0.56","116","d9b7m7vb","low"
"4","13","free","220","10","-29","orange-76","orange","454","sampling-task","69","1095848","0.0-5.0-0.57-0.57","116","d9b7m7vb","low"
"4","14","free","220","10","4","orange-76","orange","302","sampling-task","70","1097793","0.0-5.0-0.58-0.58","116","d9b7m7vb","low"
"5","1","fixed","10","114","105","green-21","green","1796","sampling-task","73","1121385","0.0-5.0-0.59-0.59","116","d9b7m7vb","low"
"5","2","fixed","10","114","112","green-21","green","518","sampling-task","74","1123696","0.0-5.0-0.60-0.60","116","d9b7m7vb","low"
"5","3","fixed","10","114","72","green-21","green","510","sampling-task","75","1125153","0.0-5.0-0.61-0.61","116","d9b7m7vb","low"
"5","4","fixed","10","114","137","green-21","green","550","sampling-task","76","1126672","0.0-5.0-0.62-0.62","116","d9b7m7vb","low"
"5","5","fixed","10","114","104","green-21","green","446","sampling-task","77","1128185","0.0-5.0-0.63-0.63","116","d9b7m7vb","low"
"5","6","fixed","10","114","130","green-21","green","469","sampling-task","78","1129744","0.0-5.0-0.64-0.64","116","d9b7m7vb","low"
"5","7","fixed","10","114","107","green-21","green","526","sampling-task","79","1132328","0.0-5.0-0.65-0.65","116","d9b7m7vb","low"
"5","8","fixed","10","114","119","green-21","green","718","sampling-task","80","1134161","0.0-5.0-0.66-0.66","116","d9b7m7vb","low"
"5","9","fixed","10","114","111","green-21","green","566","sampling-task","81","1135840","0.0-5.0-0.67-0.67","116","d9b7m7vb","low"
"5","10","fixed","10","114","119","green-21","green","486","sampling-task","82","1137704","0.0-5.0-0.68-0.68","116","d9b7m7vb","low"
"6","1","free","220","74","93","purple-170","purple","2228","sampling-task","85","1166256","0.0-5.0-0.69-0.69","116","d9b7m7vb","low"
"6","2","free","220","74","77","purple-170","purple","509","sampling-task","86","1167696","0.0-5.0-0.70-0.70","116","d9b7m7vb","low"
"6","3","free","220","74","124","purple-170","purple","1405","sampling-task","87","1170456","0.0-5.0-0.71-0.71","116","d9b7m7vb","low"
"6","4","free","220","74","104","purple-170","purple","574","sampling-task","88","1172160","0.0-5.0-0.72-0.72","116","d9b7m7vb","low"
"6","5","free","220","74","62","purple-170","purple","462","sampling-task","89","1173840","0.0-5.0-0.73-0.73","116","d9b7m7vb","low"
"6","6","free","220","74","25","purple-170","purple","454","sampling-task","90","1175736","0.0-5.0-0.74-0.74","116","d9b7m7vb","low"
"6","7","free","220","74","86","purple-170","purple","469","sampling-task","91","1177192","0.0-5.0-0.75-0.75","116","d9b7m7vb","low"
"6","8","free","220","74","63","purple-170","purple","502","sampling-task","92","1178624","0.0-5.0-0.76-0.76","116","d9b7m7vb","low"
"6","9","free","220","74","62","purple-170","purple","477","sampling-task","93","1180200","0.0-5.0-0.77-0.77","116","d9b7m7vb","low"
"6","10","free","220","74","68","purple-170","purple","454","sampling-task","94","1181528","0.0-5.0-0.78-0.78","116","d9b7m7vb","low"
"6","11","free","220","74","84","purple-170","purple","477","sampling-task","95","1182912","0.0-5.0-0.79-0.79","116","d9b7m7vb","low"
"6","12","free","220","74","105","purple-170","purple","446","sampling-task","96","1184552","0.0-5.0-0.80-0.80","116","d9b7m7vb","low"
"6","13","free","220","74","102","purple-170","purple","374","sampling-task","97","1185920","0.0-5.0-0.81-0.81","116","d9b7m7vb","low"
"6","14","free","220","74","76","purple-170","purple","430","sampling-task","98","1187544","0.0-5.0-0.82-0.82","116","d9b7m7vb","low"
"6","15","free","220","74","38","purple-170","purple","398","sampling-task","99","1189032","0.0-5.0-0.83-0.83","116","d9b7m7vb","low"
"6","16","free","220","74","98","purple-170","purple","461","sampling-task","100","1190408","0.0-5.0-0.84-0.84","116","d9b7m7vb","low"
"6","17","free","220","74","81","purple-170","purple","422","sampling-task","101","1191856","0.0-5.0-0.85-0.85","116","d9b7m7vb","low"
"6","18","free","220","74","54","purple-170","purple","415","sampling-task","102","1193336","0.0-5.0-0.86-0.86","116","d9b7m7vb","low"
"6","19","free","220","74","101","purple-170","purple","461","sampling-task","103","1194856","0.0-5.0-0.87-0.87","116","d9b7m7vb","low"
"6","20","free","220","74","60","purple-170","purple","502","sampling-task","104","1196320","0.0-5.0-0.88-0.88","116","d9b7m7vb","low"
"6","21","free","220","74","114","purple-170","purple","413","sampling-task","105","1197728","0.0-5.0-0.89-0.89","116","d9b7m7vb","low"
"6","22","free","220","74","104","purple-170","purple","493","sampling-task","106","1199768","0.0-5.0-0.90-0.90","116","d9b7m7vb","low"
"6","23","free","220","74","61","purple-170","purple","341","sampling-task","107","1201656","0.0-5.0-0.91-0.91","116","d9b7m7vb","low"
"6","24","free","220","74","90","purple-170","purple","382","sampling-task","108","1203296","0.0-5.0-0.92-0.92","116","d9b7m7vb","low"
"6","25","free","220","74","48","purple-170","purple","454","sampling-task","109","1205296","0.0-5.0-0.93-0.93","116","d9b7m7vb","low"
