"round_number","sample_number","sampling_type","nSamples","mean","feedback","stimulus","stimulus_colour","rt","trial_type","trial_index","time_elapsed","internal_node_id","participant","randomID","condition"
"1","1","fixed","10","13","11","orange-172","orange","6908","sampling-task","6","311811","0.0-5.0-0.0-0.0","105","vdzmo9gj","high"
"1","2","fixed","10","13","7","orange-123","orange","9012","sampling-task","7","322953","0.0-5.0-0.1-0.1","105","vdzmo9gj","high"
"1","3","fixed","10","13","-13","orange-114","orange","8318","sampling-task","8","333104","0.0-5.0-0.2-0.2","105","vdzmo9gj","high"
"1","4","fixed","10","13","30","orange-170","orange","14142","sampling-task","9","352040","0.0-5.0-0.3-0.3","105","vdzmo9gj","high"
"1","5","fixed","10","13","6","orange-206","orange","8719","sampling-task","10","362176","0.0-5.0-0.4-0.4","105","vdzmo9gj","high"
"1","6","fixed","10","13","18","orange-152","orange","13798","sampling-task","11","377624","0.0-5.0-0.5-0.5","105","vdzmo9gj","high"
"1","7","fixed","10","13","15","orange-26","orange","9493","sampling-task","12","389088","0.0-5.0-0.6-0.6","105","vdzmo9gj","high"
"1","8","fixed","10","13","12","orange-77","orange","12454","sampling-task","13","403264","0.0-5.0-0.7-0.7","105","vdzmo9gj","high"
"1","9","fixed","10","13","18","orange-201","orange","5550","sampling-task","14","410087","0.0-5.0-0.8-0.8","105","vdzmo9gj","high"
"1","10","fixed","10","13","6","orange-200","orange","1766","sampling-task","15","413071","0.0-5.0-0.9-0.9","105","vdzmo9gj","high"
"2","1","free","220","73","64","green-170","green","4125","sampling-task","18","469078","0.0-5.0-0.10-0.10","105","vdzmo9gj","high"
"2","2","free","220","73","65","green-182","green","1303","sampling-task","19","471934","0.0-5.0-0.11-0.11","105","vdzmo9gj","high"
"2","3","free","220","73","90","green-18","green","1262","sampling-task","20","474350","0.0-5.0-0.12-0.12","105","vdzmo9gj","high"
"2","4","free","220","73","79","green-211","green","4391","sampling-task","21","479934","0.0-5.0-0.13-0.13","105","vdzmo9gj","high"
"2","5","free","220","73","79","green-47","green","623","sampling-task","22","481502","0.0-5.0-0.14-0.14","105","vdzmo9gj","high"
"2","6","free","220","73","55","green-116","green","543","sampling-task","23","483278","0.0-5.0-0.15-0.15","105","vdzmo9gj","high"
"2","7","free","220","73","90","green-122","green","791","sampling-task","24","484950","0.0-5.0-0.16-0.16","105","vdzmo9gj","high"
"2","8","free","220","73","81","green-102","green","599","sampling-task","25","486478","0.0-5.0-0.17-0.17","105","vdzmo9gj","high"
"2","9","free","220","73","42","green-54","green","534","sampling-task","26","487902","0.0-5.0-0.18-0.18","105","vdzmo9gj","high"
"2","10","free","220","73","92","green-203","green","463","sampling-task","27","489342","0.0-5.0-0.19-0.19","105","vdzmo9gj","high"
"2","11","free","220","73","58","green-18","green","447","sampling-task","28","491046","0.0-5.0-0.20-0.20","105","vdzmo9gj","high"
"2","12","free","220","73","84","green-65","green","567","sampling-task","29","492774","0.0-5.0-0.21-0.21","105","vdzmo9gj","high"
"2","13","free","220","73","60","green-8","green","710","sampling-task","30","495030","0.0-5.0-0.22-0.22","105","vdzmo9gj","high"
"2","14","free","220","73","57","green-143","green","759","sampling-task","31","496742","0.0-5.0-0.23-0.23","105","vdzmo9gj","high"
"2","15","free","220","73","109","green-104","green","623","sampling-task","32","498303","0.0-5.0-0.24-0.24","105","vdzmo9gj","high"
"2","16","free","220","73","90","green-216","green","525","sampling-task","33","501133","0.0-5.0-0.25-0.25","105","vdzmo9gj","high"
"2","17","free","220","73","51","green-154","green","638","sampling-task","34","503116","0.0-5.0-0.26-0.26","105","vdzmo9gj","high"
"3","1","fixed","20","57","105","purple-53","purple","4629","sampling-task","37","537476","0.0-5.0-0.27-0.27","105","vdzmo9gj","high"
"3","2","fixed","20","57","50","purple-86","purple","830","sampling-task","38","539260","0.0-5.0-0.28-0.28","105","vdzmo9gj","high"
"3","3","fixed","20","57","51","purple-52","purple","991","sampling-task","39","541476","0.0-5.0-0.29-0.29","105","vdzmo9gj","high"
"3","4","fixed","20","57","72","purple-207","purple","13495","sampling-task","40","556604","0.0-5.0-0.30-0.30","105","vdzmo9gj","high"
"3","5","fixed","20","57","51","purple-81","purple","638","sampling-task","41","558052","0.0-5.0-0.31-0.31","105","vdzmo9gj","high"
"3","6","fixed","20","57","49","purple-64","purple","590","sampling-task","42","559387","0.0-5.0-0.32-0.32","105","vdzmo9gj","high"
"3","7","fixed","20","57","57","purple-108","purple","590","sampling-task","43","560859","0.0-5.0-0.33-0.33","105","vdzmo9gj","high"
"3","8","fixed","20","57","20","purple-16","purple","583","sampling-task","44","562235","0.0-5.0-0.34-0.34","105","vdzmo9gj","high"
"3","9","fixed","20","57","32","purple-107","purple","503","sampling-task","45","563619","0.0-5.0-0.35-0.35","105","vdzmo9gj","high"
"3","10","fixed","20","57","66","purple-187","purple","511","sampling-task","46","565204","0.0-5.0-0.36-0.36","105","vdzmo9gj","high"
"3","11","fixed","20","57","58","purple-65","purple","502","sampling-task","47","566531","0.0-5.0-0.37-0.37","105","vdzmo9gj","high"
"3","12","fixed","20","57","50","purple-106","purple","510","sampling-task","48","567867","0.0-5.0-0.38-0.38","105","vdzmo9gj","high"
"3","13","fixed","20","57","40","purple-50","purple","614","sampling-task","49","570979","0.0-5.0-0.39-0.39","105","vdzmo9gj","high"
"3","14","fixed","20","57","77","purple-118","purple","630","sampling-task","50","572563","0.0-5.0-0.40-0.40","105","vdzmo9gj","high"
"3","15","fixed","20","57","32","purple-17","purple","503","sampling-task","51","573955","0.0-5.0-0.41-0.41","105","vdzmo9gj","high"
"3","16","fixed","20","57","65","purple-131","purple","519","sampling-task","52","575323","0.0-5.0-0.42-0.42","105","vdzmo9gj","high"
"3","17","fixed","20","57","51","purple-156","purple","479","sampling-task","53","576859","0.0-5.0-0.43-0.43","105","vdzmo9gj","high"
"3","18","fixed","20","57","51","purple-11","purple","455","sampling-task","54","578163","0.0-5.0-0.44-0.44","105","vdzmo9gj","high"
"3","19","fixed","20","57","43","purple-144","purple","518","sampling-task","55","579587","0.0-5.0-0.45-0.45","105","vdzmo9gj","high"
"3","20","fixed","20","57","21","purple-31","purple","494","sampling-task","56","581132","0.0-5.0-0.46-0.46","105","vdzmo9gj","high"
"4","1","free","220","111","69","blue-40","blue","949","sampling-task","59","603011","0.0-5.0-0.47-0.47","105","vdzmo9gj","high"
"4","2","free","220","111","125","blue-124","blue","839","sampling-task","60","604707","0.0-5.0-0.48-0.48","105","vdzmo9gj","high"
"4","3","free","220","111","105","blue-114","blue","503","sampling-task","61","606003","0.0-5.0-0.49-0.49","105","vdzmo9gj","high"
"4","4","free","220","111","87","blue-166","blue","542","sampling-task","62","607435","0.0-5.0-0.50-0.50","105","vdzmo9gj","high"
"4","5","free","220","111","131","blue-182","blue","494","sampling-task","63","608819","0.0-5.0-0.51-0.51","105","vdzmo9gj","high"
"4","6","free","220","111","152","blue-31","blue","526","sampling-task","64","610228","0.0-5.0-0.52-0.52","105","vdzmo9gj","high"
"4","7","free","220","111","77","blue-22","blue","742","sampling-task","65","611875","0.0-5.0-0.53-0.53","105","vdzmo9gj","high"
"4","8","free","220","111","133","blue-8","blue","1878","sampling-task","66","615003","0.0-5.0-0.54-0.54","105","vdzmo9gj","high"
"5","1","fixed","5","33","61","yellow-214","yellow","1876","sampling-task","69","642242","0.0-5.0-0.55-0.55","105","vdzmo9gj","high"
"5","2","fixed","5","33","35","yellow-126","yellow","543","sampling-task","70","643786","0.0-5.0-0.56-0.56","105","vdzmo9gj","high"
"5","3","fixed","5","33","26","yellow-184","yellow","503","sampling-task","71","645082","0.0-5.0-0.57-0.57","105","vdzmo9gj","high"
"5","4","fixed","5","33","20","yellow-180","yellow","567","sampling-task","72","646482","0.0-5.0-0.58-0.58","105","vdzmo9gj","high"
"5","5","fixed","5","33","36","yellow-167","yellow","511","sampling-task","73","647794","0.0-5.0-0.59-0.59","105","vdzmo9gj","high"
"6","1","free","220","94","85","red-117","red","1093","sampling-task","76","667834","0.0-5.0-0.60-0.60","105","vdzmo9gj","high"
"6","2","free","220","94","106","red-141","red","1758","sampling-task","77","670522","0.0-5.0-0.61-0.61","105","vdzmo9gj","high"
"6","3","free","220","94","103","red-16","red","527","sampling-task","78","672010","0.0-5.0-0.62-0.62","105","vdzmo9gj","high"
"6","4","free","220","94","105","red-136","red","495","sampling-task","79","673410","0.0-5.0-0.63-0.63","105","vdzmo9gj","high"
"6","5","free","220","94","80","red-133","red","559","sampling-task","80","675058","0.0-5.0-0.64-0.64","105","vdzmo9gj","high"
"6","6","free","220","94","91","red-159","red","847","sampling-task","81","676834","0.0-5.0-0.65-0.65","105","vdzmo9gj","high"
"6","7","free","220","94","90","red-54","red","783","sampling-task","82","678498","0.0-5.0-0.66-0.66","105","vdzmo9gj","high"
"6","8","free","220","94","99","red-159","red","461","sampling-task","83","680113","0.0-5.0-0.67-0.67","105","vdzmo9gj","high"
"6","9","free","220","94","93","red-90","red","654","sampling-task","84","681673","0.0-5.0-0.68-0.68","105","vdzmo9gj","high"
"6","10","free","220","94","111","red-180","red","4302","sampling-task","85","686961","0.0-5.0-0.69-0.69","105","vdzmo9gj","high"
"6","11","free","220","94","102","red-201","red","542","sampling-task","86","688241","0.0-5.0-0.70-0.70","105","vdzmo9gj","high"
"6","12","free","220","94","110","red-149","red","622","sampling-task","87","689769","0.0-5.0-0.71-0.71","105","vdzmo9gj","high"
"6","13","free","220","94","98","red-125","red","510","sampling-task","88","691129","0.0-5.0-0.72-0.72","105","vdzmo9gj","high"
"6","14","free","220","94","97","red-3","red","741","sampling-task","89","693033","0.0-5.0-0.73-0.73","105","vdzmo9gj","high"
"6","15","free","220","94","93","red-138","red","598","sampling-task","90","694729","0.0-5.0-0.74-0.74","105","vdzmo9gj","high"
"6","16","free","220","94","99","red-209","red","791","sampling-task","91","696441","0.0-5.0-0.75-0.75","105","vdzmo9gj","high"
"6","17","free","220","94","85","red-23","red","749","sampling-task","92","698001","0.0-5.0-0.76-0.76","105","vdzmo9gj","high"
"6","18","free","220","94","90","red-115","red","726","sampling-task","93","699681","0.0-5.0-0.77-0.77","105","vdzmo9gj","high"
"6","19","free","220","94","92","red-16","red","590","sampling-task","94","701217","0.0-5.0-0.78-0.78","105","vdzmo9gj","high"
"6","20","free","220","94","65","red-49","red","597","sampling-task","95","702785","0.0-5.0-0.79-0.79","105","vdzmo9gj","high"
"6","21","free","220","94","94","red-184","red","565","sampling-task","96","704249","0.0-5.0-0.80-0.80","105","vdzmo9gj","high"
"6","22","free","220","94","88","red-164","red","582","sampling-task","97","705769","0.0-5.0-0.81-0.81","105","vdzmo9gj","high"
"6","23","free","220","94","77","red-219","red","790","sampling-task","98","707545","0.0-5.0-0.82-0.82","105","vdzmo9gj","high"
"6","24","free","220","94","69","red-121","red","654","sampling-task","99","709161","0.0-5.0-0.83-0.83","105","vdzmo9gj","high"
"6","25","free","220","94","89","red-177","red","958","sampling-task","100","711281","0.0-5.0-0.84-0.84","105","vdzmo9gj","high"
"6","26","free","220","94","64","red-74","red","878","sampling-task","101","713257","0.0-5.0-0.85-0.85","105","vdzmo9gj","high"
"6","27","free","220","94","125","red-212","red","774","sampling-task","102","714977","0.0-5.0-0.86-0.86","105","vdzmo9gj","high"
