"round_number","sample_number","sampling_type","nSamples","mean","feedback","stimulus","stimulus_colour","rt","trial_type","trial_index","time_elapsed","internal_node_id","participant","randomID","condition"
"1","1","fixed","20","50","15","orange-76","orange","6348","sampling-task","6","279001","0.0-5.0-0.0-0.0","24","vx8ef1lp","low"
"1","2","fixed","20","50","57","orange-76","orange","2053","sampling-task","7","299015","0.0-5.0-0.1-0.1","24","vx8ef1lp","low"
"1","3","fixed","20","50","19","orange-76","orange","1278","sampling-task","8","306263","0.0-5.0-0.2-0.2","24","vx8ef1lp","low"
"1","4","fixed","20","50","31","orange-76","orange","990","sampling-task","9","308943","0.0-5.0-0.3-0.3","24","vx8ef1lp","low"
"1","5","fixed","20","50","46","orange-76","orange","566","sampling-task","10","311015","0.0-5.0-0.4-0.4","24","vx8ef1lp","low"
"1","6","fixed","20","50","50","orange-76","orange","502","sampling-task","11","313063","0.0-5.0-0.5-0.5","24","vx8ef1lp","low"
"1","7","fixed","20","50","47","orange-76","orange","1022","sampling-task","12","315871","0.0-5.0-0.6-0.6","24","vx8ef1lp","low"
"1","8","fixed","20","50","36","orange-76","orange","854","sampling-task","13","318375","0.0-5.0-0.7-0.7","24","vx8ef1lp","low"
"1","9","fixed","20","50","64","orange-76","orange","1150","sampling-task","14","322223","0.0-5.0-0.8-0.8","24","vx8ef1lp","low"
"1","10","fixed","20","50","39","orange-76","orange","694","sampling-task","15","324023","0.0-5.0-0.9-0.9","24","vx8ef1lp","low"
"1","11","fixed","20","50","67","orange-76","orange","478","sampling-task","16","326959","0.0-5.0-0.10-0.10","24","vx8ef1lp","low"
"1","12","fixed","20","50","50","orange-76","orange","630","sampling-task","17","328615","0.0-5.0-0.11-0.11","24","vx8ef1lp","low"
"1","13","fixed","20","50","59","orange-76","orange","526","sampling-task","18","330327","0.0-5.0-0.12-0.12","24","vx8ef1lp","low"
"1","14","fixed","20","50","95","orange-76","orange","518","sampling-task","19","332335","0.0-5.0-0.13-0.13","24","vx8ef1lp","low"
"1","15","fixed","20","50","56","orange-76","orange","470","sampling-task","20","333703","0.0-5.0-0.14-0.14","24","vx8ef1lp","low"
"1","16","fixed","20","50","33","orange-76","orange","478","sampling-task","21","335231","0.0-5.0-0.15-0.15","24","vx8ef1lp","low"
"1","17","fixed","20","50","11","orange-76","orange","774","sampling-task","22","337839","0.0-5.0-0.16-0.16","24","vx8ef1lp","low"
"1","18","fixed","20","50","25","orange-76","orange","494","sampling-task","23","339303","0.0-5.0-0.17-0.17","24","vx8ef1lp","low"
"1","19","fixed","20","50","46","orange-76","orange","469","sampling-task","24","341119","0.0-5.0-0.18-0.18","24","vx8ef1lp","low"
"1","20","fixed","20","50","51","orange-76","orange","510","sampling-task","25","342935","0.0-5.0-0.19-0.19","24","vx8ef1lp","low"
"2","1","free","220","13","13","yellow-39","yellow","3180","sampling-task","28","392536","0.0-5.0-0.20-0.20","24","vx8ef1lp","low"
"2","2","free","220","13","2","yellow-39","yellow","398","sampling-task","29","394192","0.0-5.0-0.21-0.21","24","vx8ef1lp","low"
"2","3","free","220","13","4","yellow-39","yellow","382","sampling-task","30","395592","0.0-5.0-0.22-0.22","24","vx8ef1lp","low"
"2","4","free","220","13","7","yellow-39","yellow","413","sampling-task","31","397031","0.0-5.0-0.23-0.23","24","vx8ef1lp","low"
"2","5","free","220","13","19","yellow-39","yellow","438","sampling-task","32","398592","0.0-5.0-0.24-0.24","24","vx8ef1lp","low"
"2","6","free","220","13","18","yellow-39","yellow","438","sampling-task","33","400352","0.0-5.0-0.25-0.25","24","vx8ef1lp","low"
"2","7","free","220","13","36","yellow-39","yellow","454","sampling-task","34","401856","0.0-5.0-0.26-0.26","24","vx8ef1lp","low"
"2","8","free","220","13","3","yellow-39","yellow","478","sampling-task","35","403231","0.0-5.0-0.27-0.27","24","vx8ef1lp","low"
"2","9","free","220","13","-5","yellow-39","yellow","438","sampling-task","36","404688","0.0-5.0-0.28-0.28","24","vx8ef1lp","low"
"2","10","free","220","13","6","yellow-39","yellow","470","sampling-task","37","406119","0.0-5.0-0.29-0.29","24","vx8ef1lp","low"
"2","11","free","220","13","-2","yellow-39","yellow","478","sampling-task","38","407656","0.0-5.0-0.30-0.30","24","vx8ef1lp","low"
"2","12","free","220","13","-31","yellow-39","yellow","454","sampling-task","39","409136","0.0-5.0-0.31-0.31","24","vx8ef1lp","low"
"2","13","free","220","13","13","yellow-39","yellow","1158","sampling-task","40","411296","0.0-5.0-0.32-0.32","24","vx8ef1lp","low"
"3","1","fixed","5","70","47","blue-209","blue","2261","sampling-task","43","443839","0.0-5.0-0.33-0.33","24","vx8ef1lp","low"
"3","2","fixed","5","70","71","blue-209","blue","470","sampling-task","44","445352","0.0-5.0-0.34-0.34","24","vx8ef1lp","low"
"3","3","fixed","5","70","64","blue-209","blue","534","sampling-task","45","446807","0.0-5.0-0.35-0.35","24","vx8ef1lp","low"
"3","4","fixed","5","70","100","blue-209","blue","502","sampling-task","46","449080","0.0-5.0-0.36-0.36","24","vx8ef1lp","low"
"3","5","fixed","5","70","82","blue-209","blue","566","sampling-task","47","450511","0.0-5.0-0.37-0.37","24","vx8ef1lp","low"
"4","1","free","220","33","28","purple-196","purple","2380","sampling-task","50","477495","0.0-5.0-0.38-0.38","24","vx8ef1lp","low"
"4","2","free","220","33","28","purple-196","purple","406","sampling-task","51","478792","0.0-5.0-0.39-0.39","24","vx8ef1lp","low"
"4","3","free","220","33","15","purple-196","purple","486","sampling-task","52","480167","0.0-5.0-0.40-0.40","24","vx8ef1lp","low"
"4","4","free","220","33","43","purple-196","purple","453","sampling-task","53","481447","0.0-5.0-0.41-0.41","24","vx8ef1lp","low"
"4","5","free","220","33","11","purple-196","purple","438","sampling-task","54","483335","0.0-5.0-0.42-0.42","24","vx8ef1lp","low"
"4","6","free","220","33","18","purple-196","purple","382","sampling-task","55","484727","0.0-5.0-0.43-0.43","24","vx8ef1lp","low"
"4","7","free","220","33","4","purple-196","purple","437","sampling-task","56","486175","0.0-5.0-0.44-0.44","24","vx8ef1lp","low"
"4","8","free","220","33","32","purple-196","purple","533","sampling-task","57","488055","0.0-5.0-0.45-0.45","24","vx8ef1lp","low"
"4","9","free","220","33","18","purple-196","purple","454","sampling-task","58","489383","0.0-5.0-0.46-0.46","24","vx8ef1lp","low"
"4","10","free","220","33","71","purple-196","purple","462","sampling-task","59","490831","0.0-5.0-0.47-0.47","24","vx8ef1lp","low"
"4","11","free","220","33","21","purple-196","purple","470","sampling-task","60","492175","0.0-5.0-0.48-0.48","24","vx8ef1lp","low"
"4","12","free","220","33","6","purple-196","purple","382","sampling-task","61","493711","0.0-5.0-0.49-0.49","24","vx8ef1lp","low"
"4","13","free","220","33","63","purple-196","purple","405","sampling-task","62","495087","0.0-5.0-0.50-0.50","24","vx8ef1lp","low"
"4","14","free","220","33","71","purple-196","purple","357","sampling-task","63","496335","0.0-5.0-0.51-0.51","24","vx8ef1lp","low"
"4","15","free","220","33","43","purple-196","purple","366","sampling-task","64","497599","0.0-5.0-0.52-0.52","24","vx8ef1lp","low"
"4","16","free","220","33","47","purple-196","purple","342","sampling-task","65","498975","0.0-5.0-0.53-0.53","24","vx8ef1lp","low"
"4","17","free","220","33","32","purple-196","purple","350","sampling-task","66","500895","0.0-5.0-0.54-0.54","24","vx8ef1lp","low"
"4","18","free","220","33","56","purple-196","purple","414","sampling-task","67","502183","0.0-5.0-0.55-0.55","24","vx8ef1lp","low"
"4","19","free","220","33","27","purple-196","purple","365","sampling-task","68","503375","0.0-5.0-0.56-0.56","24","vx8ef1lp","low"
"4","20","free","220","33","33","purple-196","purple","405","sampling-task","69","504791","0.0-5.0-0.57-0.57","24","vx8ef1lp","low"
"4","21","free","220","33","60","purple-196","purple","390","sampling-task","70","506383","0.0-5.0-0.58-0.58","24","vx8ef1lp","low"
"4","22","free","220","33","55","purple-196","purple","326","sampling-task","71","507535","0.0-5.0-0.59-0.59","24","vx8ef1lp","low"
"4","23","free","220","33","28","purple-196","purple","342","sampling-task","72","508711","0.0-5.0-0.60-0.60","24","vx8ef1lp","low"
"4","24","free","220","33","40","purple-196","purple","390","sampling-task","73","510239","0.0-5.0-0.61-0.61","24","vx8ef1lp","low"
"4","25","free","220","33","67","purple-196","purple","445","sampling-task","74","511839","0.0-5.0-0.62-0.62","24","vx8ef1lp","low"
"4","26","free","220","33","24","purple-196","purple","430","sampling-task","75","513431","0.0-5.0-0.63-0.63","24","vx8ef1lp","low"
"5","1","fixed","10","119","120","red-61","red","1996","sampling-task","78","531983","0.0-5.0-0.64-0.64","24","vx8ef1lp","low"
"5","2","fixed","10","119","138","red-61","red","437","sampling-task","79","533279","0.0-5.0-0.65-0.65","24","vx8ef1lp","low"
"5","3","fixed","10","119","117","red-61","red","485","sampling-task","80","534815","0.0-5.0-0.66-0.66","24","vx8ef1lp","low"
"5","4","fixed","10","119","140","red-61","red","453","sampling-task","81","536103","0.0-5.0-0.67-0.67","24","vx8ef1lp","low"
"5","5","fixed","10","119","128","red-61","red","454","sampling-task","82","537655","0.0-5.0-0.68-0.68","24","vx8ef1lp","low"
"5","6","fixed","10","119","141","red-61","red","534","sampling-task","83","539063","0.0-5.0-0.69-0.69","24","vx8ef1lp","low"
"5","7","fixed","10","119","133","red-61","red","509","sampling-task","84","540431","0.0-5.0-0.70-0.70","24","vx8ef1lp","low"
"5","8","fixed","10","119","109","red-61","red","398","sampling-task","85","541663","0.0-5.0-0.71-0.71","24","vx8ef1lp","low"
"5","9","fixed","10","119","104","red-61","red","398","sampling-task","86","542871","0.0-5.0-0.72-0.72","24","vx8ef1lp","low"
"5","10","fixed","10","119","108","red-61","red","414","sampling-task","87","544254","0.0-5.0-0.73-0.73","24","vx8ef1lp","low"
"6","1","free","220","97","96","green-72","green","1516","sampling-task","90","563927","0.0-5.0-0.74-0.74","24","vx8ef1lp","low"
"6","2","free","220","97","99","green-72","green","334","sampling-task","91","565063","0.0-5.0-0.75-0.75","24","vx8ef1lp","low"
"6","3","free","220","97","100","green-72","green","325","sampling-task","92","566551","0.0-5.0-0.76-0.76","24","vx8ef1lp","low"
"6","4","free","220","97","91","green-72","green","358","sampling-task","93","567991","0.0-5.0-0.77-0.77","24","vx8ef1lp","low"
"6","5","free","220","97","93","green-72","green","357","sampling-task","94","569295","0.0-5.0-0.78-0.78","24","vx8ef1lp","low"
"6","6","free","220","97","74","green-72","green","406","sampling-task","95","570583","0.0-5.0-0.79-0.79","24","vx8ef1lp","low"
"6","7","free","220","97","129","green-72","green","373","sampling-task","96","571783","0.0-5.0-0.80-0.80","24","vx8ef1lp","low"
"6","8","free","220","97","105","green-72","green","374","sampling-task","97","572975","0.0-5.0-0.81-0.81","24","vx8ef1lp","low"
"6","9","free","220","97","86","green-72","green","366","sampling-task","98","574143","0.0-5.0-0.82-0.82","24","vx8ef1lp","low"
"6","10","free","220","97","94","green-72","green","390","sampling-task","99","575718","0.0-5.0-0.83-0.83","24","vx8ef1lp","low"
