"round_number","sample_number","sampling_type","nSamples","mean","feedback","stimulus","stimulus_colour","rt","trial_type","trial_index","time_elapsed","internal_node_id","participant","randomID","condition"
"1","1","fixed","10","39","35","blue-120","blue","4317","sampling-task","6","293176","0.0-5.0-0.0-0.0","16","510bn3f4","high"
"1","2","fixed","10","39","39","blue-88","blue","17134","sampling-task","7","322903","0.0-5.0-0.1-0.1","16","510bn3f4","high"
"1","3","fixed","10","39","-7","blue-47","blue","4678","sampling-task","8","340557","0.0-5.0-0.2-0.2","16","510bn3f4","high"
"1","4","fixed","10","39","44","blue-204","blue","4910","sampling-task","9","349213","0.0-5.0-0.3-0.3","16","510bn3f4","high"
"1","5","fixed","10","39","50","blue-199","blue","9598","sampling-task","10","360453","0.0-5.0-0.4-0.4","16","510bn3f4","high"
"1","6","fixed","10","39","67","blue-171","blue","8142","sampling-task","11","371661","0.0-5.0-0.5-0.5","16","510bn3f4","high"
"1","7","fixed","10","39","23","blue-60","blue","10742","sampling-task","12","384037","0.0-5.0-0.6-0.6","16","510bn3f4","high"
"1","8","fixed","10","39","38","blue-130","blue","9590","sampling-task","13","395173","0.0-5.0-0.7-0.7","16","510bn3f4","high"
"1","9","fixed","10","39","38","blue-153","blue","6043","sampling-task","14","403058","0.0-5.0-0.8-0.8","16","510bn3f4","high"
"1","10","fixed","10","39","27","blue-90","blue","3358","sampling-task","15","409082","0.0-5.0-0.9-0.9","16","510bn3f4","high"
"2","1","free","220","78","49","purple-61","purple","3652","sampling-task","18","459138","0.0-5.0-0.10-0.10","16","510bn3f4","high"
"2","2","free","220","78","72","purple-120","purple","1564","sampling-task","19","463807","0.0-5.0-0.11-0.11","16","510bn3f4","high"
"2","3","free","220","78","88","purple-92","purple","854","sampling-task","20","467831","0.0-5.0-0.12-0.12","16","510bn3f4","high"
"2","4","free","220","78","63","purple-125","purple","982","sampling-task","21","470391","0.0-5.0-0.13-0.13","16","510bn3f4","high"
"2","5","free","220","78","46","purple-122","purple","726","sampling-task","22","472447","0.0-5.0-0.14-0.14","16","510bn3f4","high"
"2","6","free","220","78","54","purple-13","purple","630","sampling-task","23","474335","0.0-5.0-0.15-0.15","16","510bn3f4","high"
"2","7","free","220","78","96","purple-205","purple","550","sampling-task","24","476431","0.0-5.0-0.16-0.16","16","510bn3f4","high"
"2","8","free","220","78","76","purple-63","purple","846","sampling-task","25","478903","0.0-5.0-0.17-0.17","16","510bn3f4","high"
"2","9","free","220","78","57","purple-83","purple","606","sampling-task","26","481751","0.0-5.0-0.18-0.18","16","510bn3f4","high"
"2","10","free","220","78","92","purple-6","purple","710","sampling-task","27","484135","0.0-5.0-0.19-0.19","16","510bn3f4","high"
"2","11","free","220","78","87","purple-168","purple","751","sampling-task","28","486199","0.0-5.0-0.20-0.20","16","510bn3f4","high"
"2","12","free","220","78","71","purple-110","purple","726","sampling-task","29","489663","0.0-5.0-0.21-0.21","16","510bn3f4","high"
"2","13","free","220","78","85","purple-185","purple","510","sampling-task","30","491831","0.0-5.0-0.22-0.22","16","510bn3f4","high"
"3","1","fixed","5","110","149","red-154","red","2988","sampling-task","33","520309","0.0-5.0-0.23-0.23","16","510bn3f4","high"
"3","2","fixed","5","110","110","red-25","red","2462","sampling-task","34","532949","0.0-5.0-0.24-0.24","16","510bn3f4","high"
"3","3","fixed","5","110","120","red-74","red","1950","sampling-task","35","537285","0.0-5.0-0.25-0.25","16","510bn3f4","high"
"3","4","fixed","5","110","115","red-6","red","1478","sampling-task","36","541373","0.0-5.0-0.26-0.26","16","510bn3f4","high"
"3","5","fixed","5","110","80","red-82","red","894","sampling-task","37","544781","0.0-5.0-0.27-0.27","16","510bn3f4","high"
"4","1","free","220","57","45","orange-160","orange","2437","sampling-task","40","571653","0.0-5.0-0.28-0.28","16","510bn3f4","high"
"4","2","free","220","57","56","orange-88","orange","1246","sampling-task","41","574245","0.0-5.0-0.29-0.29","16","510bn3f4","high"
"4","3","free","220","57","45","orange-104","orange","2542","sampling-task","42","579517","0.0-5.0-0.30-0.30","16","510bn3f4","high"
"4","4","free","220","57","59","orange-149","orange","558","sampling-task","43","581178","0.0-5.0-0.31-0.31","16","510bn3f4","high"
"4","5","free","220","57","96","orange-37","orange","638","sampling-task","44","583538","0.0-5.0-0.32-0.32","16","510bn3f4","high"
"4","6","free","220","57","34","orange-23","orange","686","sampling-task","45","585882","0.0-5.0-0.33-0.33","16","510bn3f4","high"
"4","7","free","220","57","61","orange-178","orange","614","sampling-task","46","588274","0.0-5.0-0.34-0.34","16","510bn3f4","high"
"4","8","free","220","57","79","orange-188","orange","622","sampling-task","47","590674","0.0-5.0-0.35-0.35","16","510bn3f4","high"
"4","9","free","220","57","83","orange-86","orange","621","sampling-task","48","593010","0.0-5.0-0.36-0.36","16","510bn3f4","high"
"4","10","free","220","57","58","orange-161","orange","830","sampling-task","49","595402","0.0-5.0-0.37-0.37","16","510bn3f4","high"
"4","11","free","220","57","29","orange-46","orange","966","sampling-task","50","598250","0.0-5.0-0.38-0.38","16","510bn3f4","high"
"4","12","free","220","57","55","orange-168","orange","957","sampling-task","51","600978","0.0-5.0-0.39-0.39","16","510bn3f4","high"
"4","13","free","220","57","69","orange-35","orange","598","sampling-task","52","602970","0.0-5.0-0.40-0.40","16","510bn3f4","high"
"4","14","free","220","57","24","orange-57","orange","1654","sampling-task","53","606098","0.0-5.0-0.41-0.41","16","510bn3f4","high"
"4","15","free","220","57","108","orange-44","orange","2878","sampling-task","54","611090","0.0-5.0-0.42-0.42","16","510bn3f4","high"
"5","1","fixed","20","94","143","green-195","green","4228","sampling-task","57","641136","0.0-5.0-0.43-0.43","16","510bn3f4","high"
"5","2","fixed","20","94","101","green-210","green","3286","sampling-task","58","657399","0.0-5.0-0.44-0.44","16","510bn3f4","high"
"5","3","fixed","20","94","128","green-160","green","870","sampling-task","59","668695","0.0-5.0-0.45-0.45","16","510bn3f4","high"
"5","4","fixed","20","94","78","green-206","green","1206","sampling-task","60","673503","0.0-5.0-0.46-0.46","16","510bn3f4","high"
"5","5","fixed","20","94","93","green-163","green","1062","sampling-task","61","677839","0.0-5.0-0.47-0.47","16","510bn3f4","high"
"5","6","fixed","20","94","116","green-134","green","742","sampling-task","62","682055","0.0-5.0-0.48-0.48","16","510bn3f4","high"
"5","7","fixed","20","94","78","green-26","green","822","sampling-task","63","694288","0.0-5.0-0.49-0.49","16","510bn3f4","high"
"5","8","fixed","20","94","88","green-89","green","1054","sampling-task","64","699527","0.0-5.0-0.50-0.50","16","510bn3f4","high"
"5","9","fixed","20","94","72","green-14","green","867","sampling-task","65","705893","0.0-5.0-0.51-0.51","16","510bn3f4","high"
"5","10","fixed","20","94","66","green-1","green","982","sampling-task","66","710229","0.0-5.0-0.52-0.52","16","510bn3f4","high"
"5","11","fixed","20","94","68","green-186","green","677","sampling-task","67","715677","0.0-5.0-0.53-0.53","16","510bn3f4","high"
"5","12","fixed","20","94","129","green-122","green","774","sampling-task","68","721141","0.0-5.0-0.54-0.54","16","510bn3f4","high"
"5","13","fixed","20","94","105","green-208","green","821","sampling-task","69","726365","0.0-5.0-0.55-0.55","16","510bn3f4","high"
"5","14","fixed","20","94","102","green-3","green","782","sampling-task","70","733221","0.0-5.0-0.56-0.56","16","510bn3f4","high"
"5","15","fixed","20","94","63","green-106","green","894","sampling-task","71","737053","0.0-5.0-0.57-0.57","16","510bn3f4","high"
"5","16","fixed","20","94","87","green-24","green","774","sampling-task","72","743477","0.0-5.0-0.58-0.58","16","510bn3f4","high"
"5","17","fixed","20","94","60","green-208","green","709","sampling-task","73","747261","0.0-5.0-0.59-0.59","16","510bn3f4","high"
"5","18","fixed","20","94","110","green-187","green","2846","sampling-task","74","753453","0.0-5.0-0.60-0.60","16","510bn3f4","high"
"5","19","fixed","20","94","111","green-123","green","1374","sampling-task","75","758285","0.0-5.0-0.61-0.61","16","510bn3f4","high"
"5","20","fixed","20","94","114","green-157","green","2087","sampling-task","76","764719","0.0-5.0-0.62-0.62","16","510bn3f4","high"
"6","1","free","220","15","-24","yellow-219","yellow","2885","sampling-task","79","790431","0.0-5.0-0.63-0.63","16","510bn3f4","high"
"6","2","free","220","15","20","yellow-202","yellow","734","sampling-task","80","793743","0.0-5.0-0.64-0.64","16","510bn3f4","high"
"6","3","free","220","15","4","yellow-10","yellow","678","sampling-task","81","795919","0.0-5.0-0.65-0.65","16","510bn3f4","high"
"6","4","free","220","15","-30","yellow-132","yellow","814","sampling-task","82","800807","0.0-5.0-0.66-0.66","16","510bn3f4","high"
"6","5","free","220","15","9","yellow-147","yellow","1302","sampling-task","83","804255","0.0-5.0-0.67-0.67","16","510bn3f4","high"
"6","6","free","220","15","40","yellow-186","yellow","645","sampling-task","84","806967","0.0-5.0-0.68-0.68","16","510bn3f4","high"
"6","7","free","220","15","-24","yellow-32","yellow","870","sampling-task","85","809527","0.0-5.0-0.69-0.69","16","510bn3f4","high"
"6","8","free","220","15","35","yellow-3","yellow","1862","sampling-task","86","812998","0.0-5.0-0.70-0.70","16","510bn3f4","high"
"6","9","free","220","15","6","yellow-111","yellow","1470","sampling-task","87","816215","0.0-5.0-0.71-0.71","16","510bn3f4","high"
"6","10","free","220","15","24","yellow-140","yellow","1053","sampling-task","88","818927","0.0-5.0-0.72-0.72","16","510bn3f4","high"
"6","11","free","220","15","25","yellow-60","yellow","606","sampling-task","89","821168","0.0-5.0-0.73-0.73","16","510bn3f4","high"
"6","12","free","220","15","19","yellow-66","yellow","733","sampling-task","90","823808","0.0-5.0-0.74-0.74","16","510bn3f4","high"
"6","13","free","220","15","21","yellow-136","yellow","557","sampling-task","91","826072","0.0-5.0-0.75-0.75","16","510bn3f4","high"
"6","14","free","220","15","20","yellow-48","yellow","556","sampling-task","92","831400","0.0-5.0-0.76-0.76","16","510bn3f4","high"
"6","15","free","220","15","40","yellow-56","yellow","989","sampling-task","93","835160","0.0-5.0-0.77-0.77","16","510bn3f4","high"
"6","16","free","220","15","42","yellow-156","yellow","549","sampling-task","94","839584","0.0-5.0-0.78-0.78","16","510bn3f4","high"
"6","17","free","220","15","17","yellow-138","yellow","501","sampling-task","95","841520","0.0-5.0-0.79-0.79","16","510bn3f4","high"
"6","18","free","220","15","6","yellow-59","yellow","606","sampling-task","96","843600","0.0-5.0-0.80-0.80","16","510bn3f4","high"
"6","19","free","220","15","-2","yellow-114","yellow","541","sampling-task","97","845416","0.0-5.0-0.81-0.81","16","510bn3f4","high"
"6","20","free","220","15","8","yellow-121","yellow","621","sampling-task","98","922788","0.0-5.0-0.82-0.82","16","510bn3f4","high"
"6","21","free","220","15","5","yellow-189","yellow","1902","sampling-task","99","925980","0.0-5.0-0.83-0.83","16","510bn3f4","high"
"6","22","free","220","15","5","yellow-194","yellow","621","sampling-task","100","928460","0.0-5.0-0.84-0.84","16","510bn3f4","high"
"6","23","free","220","15","9","yellow-81","yellow","693","sampling-task","101","930644","0.0-5.0-0.85-0.85","16","510bn3f4","high"
"6","24","free","220","15","3","yellow-155","yellow","598","sampling-task","102","933012","0.0-5.0-0.86-0.86","16","510bn3f4","high"
"6","25","free","220","15","21","yellow-185","yellow","885","sampling-task","103","938260","0.0-5.0-0.87-0.87","16","510bn3f4","high"
"6","26","free","220","15","24","yellow-195","yellow","653","sampling-task","104","939820","0.0-5.0-0.88-0.88","16","510bn3f4","high"
"6","27","free","220","15","18","yellow-175","yellow","573","sampling-task","105","941412","0.0-5.0-0.89-0.89","16","510bn3f4","high"
"6","28","free","220","15","25","yellow-78","yellow","925","sampling-task","106","943252","0.0-5.0-0.90-0.90","16","510bn3f4","high"
"6","29","free","220","15","17","yellow-37","yellow","766","sampling-task","107","945068","0.0-5.0-0.91-0.91","16","510bn3f4","high"
"6","30","free","220","15","17","yellow-179","yellow","733","sampling-task","108","946949","0.0-5.0-0.92-0.92","16","510bn3f4","high"
"6","31","free","220","15","2","yellow-217","yellow","637","sampling-task","109","948628","0.0-5.0-0.93-0.93","16","510bn3f4","high"
"6","32","free","220","15","32","yellow-183","yellow","1222","sampling-task","110","950772","0.0-5.0-0.94-0.94","16","510bn3f4","high"
"6","33","free","220","15","1","yellow-216","yellow","750","sampling-task","111","953020","0.0-5.0-0.95-0.95","16","510bn3f4","high"
"6","34","free","220","15","20","yellow-55","yellow","605","sampling-task","112","955020","0.0-5.0-0.96-0.96","16","510bn3f4","high"
