"round_number","sample_number","sampling_type","nSamples","mean","feedback","stimulus","stimulus_colour","rt","trial_type","trial_index","time_elapsed","internal_node_id","participant","randomID","condition"
"1","1","fixed","5","118","92","red-38","red","5051","sampling-task","9","620949","0.0-5.0-0.0-0.0","93","cpdo7syn","high"
"1","2","fixed","5","118","102","red-110","red","4158","sampling-task","10","628445","0.0-5.0-0.1-0.1","93","cpdo7syn","high"
"1","3","fixed","5","118","157","red-59","red","1102","sampling-task","11","634237","0.0-5.0-0.2-0.2","93","cpdo7syn","high"
"1","4","fixed","5","118","90","red-63","red","1390","sampling-task","12","636853","0.0-5.0-0.3-0.3","93","cpdo7syn","high"
"1","5","fixed","5","118","103","red-89","red","1590","sampling-task","13","640541","0.0-5.0-0.4-0.4","93","cpdo7syn","high"
"2","1","free","220","34","33","yellow-112","yellow","6517","sampling-task","16","708979","0.0-5.0-0.5-0.5","93","cpdo7syn","high"
"2","2","free","220","34","20","yellow-60","yellow","1038","sampling-task","17","711610","0.0-5.0-0.6-0.6","93","cpdo7syn","high"
"2","3","free","220","34","62","yellow-145","yellow","911","sampling-task","18","716643","0.0-5.0-0.7-0.7","93","cpdo7syn","high"
"2","4","free","220","34","8","yellow-105","yellow","1294","sampling-task","19","719283","0.0-5.0-0.8-0.8","93","cpdo7syn","high"
"2","5","free","220","34","30","yellow-185","yellow","854","sampling-task","20","721298","0.0-5.0-0.9-0.9","93","cpdo7syn","high"
"2","6","free","220","34","34","yellow-21","yellow","623","sampling-task","21","723202","0.0-5.0-0.10-0.10","93","cpdo7syn","high"
"2","7","free","220","34","22","yellow-35","yellow","886","sampling-task","22","725291","0.0-5.0-0.11-0.11","93","cpdo7syn","high"
"2","8","free","220","34","47","yellow-146","yellow","718","sampling-task","23","727075","0.0-5.0-0.12-0.12","93","cpdo7syn","high"
"2","9","free","220","34","52","yellow-207","yellow","534","sampling-task","24","728971","0.0-5.0-0.13-0.13","93","cpdo7syn","high"
"2","10","free","220","34","25","yellow-130","yellow","430","sampling-task","25","730576","0.0-5.0-0.14-0.14","93","cpdo7syn","high"
"2","11","free","220","34","9","yellow-154","yellow","358","sampling-task","26","732136","0.0-5.0-0.15-0.15","93","cpdo7syn","high"
"2","12","free","220","34","4","yellow-172","yellow","366","sampling-task","27","733392","0.0-5.0-0.16-0.16","93","cpdo7syn","high"
"2","13","free","220","34","32","yellow-175","yellow","406","sampling-task","28","734800","0.0-5.0-0.17-0.17","93","cpdo7syn","high"
"2","14","free","220","34","27","yellow-101","yellow","1429","sampling-task","29","737608","0.0-5.0-0.18-0.18","93","cpdo7syn","high"
"3","1","fixed","10","79","41","green-68","green","4429","sampling-task","32","770768","0.0-5.0-0.19-0.19","93","cpdo7syn","high"
"3","2","fixed","10","79","87","green-218","green","1054","sampling-task","33","774432","0.0-5.0-0.20-0.20","93","cpdo7syn","high"
"3","3","fixed","10","79","-6","green-119","green","2070","sampling-task","34","778232","0.0-5.0-0.21-0.21","93","cpdo7syn","high"
"3","4","fixed","10","79","80","green-31","green","1878","sampling-task","35","782680","0.0-5.0-0.22-0.22","93","cpdo7syn","high"
"3","5","fixed","10","79","102","green-197","green","2213","sampling-task","36","790049","0.0-5.0-0.23-0.23","93","cpdo7syn","high"
"3","6","fixed","10","79","94","green-3","green","1211","sampling-task","37","793526","0.0-5.0-0.24-0.24","93","cpdo7syn","high"
"3","7","fixed","10","79","84","green-212","green","1622","sampling-task","38","799502","0.0-5.0-0.25-0.25","93","cpdo7syn","high"
"3","8","fixed","10","79","75","green-168","green","1422","sampling-task","39","802502","0.0-5.0-0.26-0.26","93","cpdo7syn","high"
"3","9","fixed","10","79","73","green-15","green","630","sampling-task","40","804990","0.0-5.0-0.27-0.27","93","cpdo7syn","high"
"3","10","fixed","10","79","73","green-83","green","966","sampling-task","41","807078","0.0-5.0-0.28-0.28","93","cpdo7syn","high"
"4","1","free","220","56","78","orange-187","orange","3588","sampling-task","44","833318","0.0-5.0-0.29-0.29","93","cpdo7syn","high"
"4","2","free","220","56","47","orange-126","orange","950","sampling-task","45","835510","0.0-5.0-0.30-0.30","93","cpdo7syn","high"
"4","3","free","220","56","82","orange-157","orange","670","sampling-task","46","837734","0.0-5.0-0.31-0.31","93","cpdo7syn","high"
"4","4","free","220","56","54","orange-176","orange","734","sampling-task","47","839582","0.0-5.0-0.32-0.32","93","cpdo7syn","high"
"4","5","free","220","56","67","orange-201","orange","718","sampling-task","48","842966","0.0-5.0-0.33-0.33","93","cpdo7syn","high"
"4","6","free","220","56","60","orange-79","orange","612","sampling-task","49","844494","0.0-5.0-0.34-0.34","93","cpdo7syn","high"
"4","7","free","220","56","90","orange-58","orange","446","sampling-task","50","846134","0.0-5.0-0.35-0.35","93","cpdo7syn","high"
"4","8","free","220","56","70","orange-184","orange","574","sampling-task","51","847894","0.0-5.0-0.36-0.36","93","cpdo7syn","high"
"4","9","free","220","56","80","orange-47","orange","774","sampling-task","52","849670","0.0-5.0-0.37-0.37","93","cpdo7syn","high"
"4","10","free","220","56","52","orange-115","orange","430","sampling-task","53","851052","0.0-5.0-0.38-0.38","93","cpdo7syn","high"
"4","11","free","220","56","50","orange-63","orange","374","sampling-task","54","852292","0.0-5.0-0.39-0.39","93","cpdo7syn","high"
"4","12","free","220","56","65","orange-117","orange","358","sampling-task","55","853564","0.0-5.0-0.40-0.40","93","cpdo7syn","high"
"4","13","free","220","56","91","orange-216","orange","350","sampling-task","56","854996","0.0-5.0-0.41-0.41","93","cpdo7syn","high"
"4","14","free","220","56","87","orange-206","orange","1006","sampling-task","57","857836","0.0-5.0-0.42-0.42","93","cpdo7syn","high"
"5","1","fixed","20","91","86","blue-169","blue","3725","sampling-task","60","886724","0.0-5.0-0.43-0.43","93","cpdo7syn","high"
"5","2","fixed","20","91","91","blue-83","blue","614","sampling-task","61","888956","0.0-5.0-0.44-0.44","93","cpdo7syn","high"
"5","3","fixed","20","91","88","blue-161","blue","1254","sampling-task","62","891308","0.0-5.0-0.45-0.45","93","cpdo7syn","high"
"5","4","fixed","20","91","67","blue-53","blue","662","sampling-task","63","892980","0.0-5.0-0.46-0.46","93","cpdo7syn","high"
"5","5","fixed","20","91","100","blue-75","blue","534","sampling-task","64","895156","0.0-5.0-0.47-0.47","93","cpdo7syn","high"
"5","6","fixed","20","91","69","blue-49","blue","1478","sampling-task","65","899284","0.0-5.0-0.48-0.48","93","cpdo7syn","high"
"5","7","fixed","20","91","82","blue-207","blue","734","sampling-task","66","900956","0.0-5.0-0.49-0.49","93","cpdo7syn","high"
"5","8","fixed","20","91","94","blue-37","blue","518","sampling-task","67","902588","0.0-5.0-0.50-0.50","93","cpdo7syn","high"
"5","9","fixed","20","91","121","blue-211","blue","638","sampling-task","68","904340","0.0-5.0-0.51-0.51","93","cpdo7syn","high"
"5","10","fixed","20","91","102","blue-77","blue","958","sampling-task","69","906796","0.0-5.0-0.52-0.52","93","cpdo7syn","high"
"5","11","fixed","20","91","80","blue-86","blue","750","sampling-task","70","908500","0.0-5.0-0.53-0.53","93","cpdo7syn","high"
"5","12","fixed","20","91","102","blue-43","blue","574","sampling-task","71","909932","0.0-5.0-0.54-0.54","93","cpdo7syn","high"
"5","13","fixed","20","91","110","blue-129","blue","606","sampling-task","72","911650","0.0-5.0-0.55-0.55","93","cpdo7syn","high"
"5","14","fixed","20","91","106","blue-140","blue","462","sampling-task","73","913066","0.0-5.0-0.56-0.56","93","cpdo7syn","high"
"5","15","fixed","20","91","106","blue-132","blue","406","sampling-task","74","914354","0.0-5.0-0.57-0.57","93","cpdo7syn","high"
"5","16","fixed","20","91","90","blue-172","blue","406","sampling-task","75","915642","0.0-5.0-0.58-0.58","93","cpdo7syn","high"
"5","17","fixed","20","91","95","blue-57","blue","374","sampling-task","76","916865","0.0-5.0-0.59-0.59","93","cpdo7syn","high"
"5","18","fixed","20","91","88","blue-169","blue","734","sampling-task","77","918666","0.0-5.0-0.60-0.60","93","cpdo7syn","high"
"5","19","fixed","20","91","76","blue-104","blue","390","sampling-task","78","920026","0.0-5.0-0.61-0.61","93","cpdo7syn","high"
"5","20","fixed","20","91","77","blue-181","blue","350","sampling-task","79","921241","0.0-5.0-0.62-0.62","93","cpdo7syn","high"
"6","1","free","220","18","47","purple-11","purple","1789","sampling-task","82","944570","0.0-5.0-0.63-0.63","93","cpdo7syn","high"
"6","2","free","220","18","0","purple-187","purple","510","sampling-task","83","947314","0.0-5.0-0.64-0.64","93","cpdo7syn","high"
"6","3","free","220","18","23","purple-57","purple","622","sampling-task","84","948898","0.0-5.0-0.65-0.65","93","cpdo7syn","high"
"6","4","free","220","18","24","purple-168","purple","422","sampling-task","85","950234","0.0-5.0-0.66-0.66","93","cpdo7syn","high"
"6","5","free","220","18","28","purple-5","purple","334","sampling-task","86","951450","0.0-5.0-0.67-0.67","93","cpdo7syn","high"
"6","6","free","220","18","10","purple-79","purple","302","sampling-task","87","952650","0.0-5.0-0.68-0.68","93","cpdo7syn","high"
"6","7","free","220","18","20","purple-188","purple","366","sampling-task","88","954018","0.0-5.0-0.69-0.69","93","cpdo7syn","high"
"6","8","free","220","18","24","purple-171","purple","318","sampling-task","89","955394","0.0-5.0-0.70-0.70","93","cpdo7syn","high"
"6","9","free","220","18","28","purple-105","purple","430","sampling-task","90","956714","0.0-5.0-0.71-0.71","93","cpdo7syn","high"
"6","10","free","220","18","29","purple-88","purple","373","sampling-task","91","958033","0.0-5.0-0.72-0.72","93","cpdo7syn","high"
"6","11","free","220","18","34","purple-177","purple","294","sampling-task","92","959170","0.0-5.0-0.73-0.73","93","cpdo7syn","high"
"6","12","free","220","18","13","purple-45","purple","325","sampling-task","93","960378","0.0-5.0-0.74-0.74","93","cpdo7syn","high"
"6","13","free","220","18","26","purple-84","purple","262","sampling-task","94","961473","0.0-5.0-0.75-0.75","93","cpdo7syn","high"
"6","14","free","220","18","27","purple-93","purple","446","sampling-task","95","962754","0.0-5.0-0.76-0.76","93","cpdo7syn","high"
"6","15","free","220","18","22","purple-214","purple","294","sampling-task","96","963889","0.0-5.0-0.77-0.77","93","cpdo7syn","high"
"6","16","free","220","18","37","purple-90","purple","294","sampling-task","97","965450","0.0-5.0-0.78-0.78","93","cpdo7syn","high"
"6","17","free","220","18","18","purple-201","purple","550","sampling-task","98","966930","0.0-5.0-0.79-0.79","93","cpdo7syn","high"
"6","18","free","220","18","-9","purple-26","purple","270","sampling-task","99","968418","0.0-5.0-0.80-0.80","93","cpdo7syn","high"
"6","19","free","220","18","-19","purple-44","purple","366","sampling-task","100","969778","0.0-5.0-0.81-0.81","93","cpdo7syn","high"
"6","20","free","220","18","10","purple-40","purple","582","sampling-task","101","971663","0.0-5.0-0.82-0.82","93","cpdo7syn","high"
"6","21","free","220","18","9","purple-6","purple","390","sampling-task","102","972975","0.0-5.0-0.83-0.83","93","cpdo7syn","high"
"6","22","free","220","18","24","purple-14","purple","1206","sampling-task","103","975463","0.0-5.0-0.84-0.84","93","cpdo7syn","high"
