"round_number","sample_number","sampling_type","nSamples","mean","feedback","stimulus","stimulus_colour","rt","trial_type","trial_index","time_elapsed","internal_node_id","participant","randomID","condition"
"1","1","fixed","5","15","-8","purple-9","purple","19410","sampling-task","6","308629","0.0-5.0-0.0-0.0","60","2ja57wc3","high"
"1","2","fixed","5","15","10","purple-121","purple","6518","sampling-task","7","317845","0.0-5.0-0.1-0.1","60","2ja57wc3","high"
"1","3","fixed","5","15","8","purple-81","purple","3726","sampling-task","8","324125","0.0-5.0-0.2-0.2","60","2ja57wc3","high"
"1","4","fixed","5","15","8","purple-71","purple","3502","sampling-task","9","329229","0.0-5.0-0.3-0.3","60","2ja57wc3","high"
"1","5","fixed","5","15","16","purple-47","purple","1814","sampling-task","10","333053","0.0-5.0-0.4-0.4","60","2ja57wc3","high"
"2","1","free","220","53","25","yellow-27","yellow","3324","sampling-task","13","404841","0.0-5.0-0.5-0.5","60","2ja57wc3","high"
"2","2","free","220","53","21","yellow-167","yellow","1374","sampling-task","14","407305","0.0-5.0-0.6-0.6","60","2ja57wc3","high"
"2","3","free","220","53","51","yellow-211","yellow","1695","sampling-task","15","410297","0.0-5.0-0.7-0.7","60","2ja57wc3","high"
"2","4","free","220","53","70","yellow-63","yellow","1798","sampling-task","16","413513","0.0-5.0-0.8-0.8","60","2ja57wc3","high"
"2","5","free","220","53","52","yellow-134","yellow","1327","sampling-task","17","415977","0.0-5.0-0.9-0.9","60","2ja57wc3","high"
"2","6","free","220","53","68","yellow-105","yellow","1030","sampling-task","18","418529","0.0-5.0-0.10-0.10","60","2ja57wc3","high"
"2","7","free","220","53","83","yellow-158","yellow","846","sampling-task","19","420961","0.0-5.0-0.11-0.11","60","2ja57wc3","high"
"2","8","free","220","53","72","yellow-117","yellow","982","sampling-task","20","423369","0.0-5.0-0.12-0.12","60","2ja57wc3","high"
"2","9","free","220","53","41","yellow-30","yellow","806","sampling-task","21","426017","0.0-5.0-0.13-0.13","60","2ja57wc3","high"
"2","10","free","220","53","42","yellow-126","yellow","716","sampling-task","22","428006","0.0-5.0-0.14-0.14","60","2ja57wc3","high"
"2","11","free","220","53","33","yellow-131","yellow","1143","sampling-task","23","432214","0.0-5.0-0.15-0.15","60","2ja57wc3","high"
"2","12","free","220","53","45","yellow-31","yellow","783","sampling-task","24","435142","0.0-5.0-0.16-0.16","60","2ja57wc3","high"
"2","13","free","220","53","71","yellow-56","yellow","599","sampling-task","25","438046","0.0-5.0-0.17-0.17","60","2ja57wc3","high"
"2","14","free","220","53","64","yellow-147","yellow","798","sampling-task","26","440270","0.0-5.0-0.18-0.18","60","2ja57wc3","high"
"2","15","free","220","53","61","yellow-107","yellow","743","sampling-task","27","441887","0.0-5.0-0.19-0.19","60","2ja57wc3","high"
"2","16","free","220","53","33","yellow-28","yellow","1470","sampling-task","28","444302","0.0-5.0-0.20-0.20","60","2ja57wc3","high"
"2","17","free","220","53","31","yellow-141","yellow","662","sampling-task","29","445918","0.0-5.0-0.21-0.21","60","2ja57wc3","high"
"2","18","free","220","53","65","yellow-7","yellow","1062","sampling-task","30","448174","0.0-5.0-0.22-0.22","60","2ja57wc3","high"
"2","19","free","220","53","74","yellow-22","yellow","2126","sampling-task","31","451686","0.0-5.0-0.23-0.23","60","2ja57wc3","high"
"3","1","fixed","10","91","97","red-150","red","3388","sampling-task","34","482030","0.0-5.0-0.24-0.24","60","2ja57wc3","high"
"3","2","fixed","10","91","46","red-210","red","1574","sampling-task","35","484702","0.0-5.0-0.25-0.25","60","2ja57wc3","high"
"3","3","fixed","10","91","58","red-141","red","1962","sampling-task","36","488066","0.0-5.0-0.26-0.26","60","2ja57wc3","high"
"3","4","fixed","10","91","115","red-148","red","2119","sampling-task","37","493234","0.0-5.0-0.27-0.27","60","2ja57wc3","high"
"3","5","fixed","10","91","103","red-42","red","2782","sampling-task","38","497578","0.0-5.0-0.28-0.28","60","2ja57wc3","high"
"3","6","fixed","10","91","86","red-53","red","1406","sampling-task","39","500506","0.0-5.0-0.29-0.29","60","2ja57wc3","high"
"3","7","fixed","10","91","82","red-101","red","1294","sampling-task","40","503498","0.0-5.0-0.30-0.30","60","2ja57wc3","high"
"3","8","fixed","10","91","96","red-121","red","1151","sampling-task","41","506114","0.0-5.0-0.31-0.31","60","2ja57wc3","high"
"3","9","fixed","10","91","118","red-157","red","1279","sampling-task","42","509835","0.0-5.0-0.32-0.32","60","2ja57wc3","high"
"3","10","fixed","10","91","83","red-73","red","774","sampling-task","43","512002","0.0-5.0-0.33-0.33","60","2ja57wc3","high"
"4","1","free","220","72","70","blue-201","blue","2241","sampling-task","46","550167","0.0-5.0-0.34-0.34","60","2ja57wc3","high"
"4","2","free","220","72","71","blue-2","blue","1262","sampling-task","47","552448","0.0-5.0-0.35-0.35","60","2ja57wc3","high"
"4","3","free","220","72","64","blue-134","blue","1701","sampling-task","48","555632","0.0-5.0-0.36-0.36","60","2ja57wc3","high"
"4","4","free","220","72","86","blue-25","blue","990","sampling-task","49","557975","0.0-5.0-0.37-0.37","60","2ja57wc3","high"
"4","5","free","220","72","55","blue-133","blue","1246","sampling-task","50","560559","0.0-5.0-0.38-0.38","60","2ja57wc3","high"
"4","6","free","220","72","52","blue-119","blue","1694","sampling-task","51","563399","0.0-5.0-0.39-0.39","60","2ja57wc3","high"
"4","7","free","220","72","9","blue-79","blue","1494","sampling-task","52","569063","0.0-5.0-0.40-0.40","60","2ja57wc3","high"
"4","8","free","220","72","59","blue-22","blue","774","sampling-task","53","571055","0.0-5.0-0.41-0.41","60","2ja57wc3","high"
"4","9","free","220","72","63","blue-196","blue","1118","sampling-task","54","573287","0.0-5.0-0.42-0.42","60","2ja57wc3","high"
"4","10","free","220","72","82","blue-113","blue","1567","sampling-task","55","576463","0.0-5.0-0.43-0.43","60","2ja57wc3","high"
"4","11","free","220","72","76","blue-192","blue","958","sampling-task","56","579263","0.0-5.0-0.44-0.44","60","2ja57wc3","high"
"4","12","free","220","72","87","blue-23","blue","878","sampling-task","57","581719","0.0-5.0-0.45-0.45","60","2ja57wc3","high"
"4","13","free","220","72","38","blue-4","blue","630","sampling-task","58","583456","0.0-5.0-0.46-0.46","60","2ja57wc3","high"
"4","14","free","220","72","94","blue-148","blue","694","sampling-task","59","585567","0.0-5.0-0.47-0.47","60","2ja57wc3","high"
"4","15","free","220","72","49","blue-195","blue","742","sampling-task","60","588032","0.0-5.0-0.48-0.48","60","2ja57wc3","high"
"4","16","free","220","72","82","blue-122","blue","662","sampling-task","61","590055","0.0-5.0-0.49-0.49","60","2ja57wc3","high"
"4","17","free","220","72","82","blue-116","blue","718","sampling-task","62","591943","0.0-5.0-0.50-0.50","60","2ja57wc3","high"
"4","18","free","220","72","37","blue-188","blue","782","sampling-task","63","593759","0.0-5.0-0.51-0.51","60","2ja57wc3","high"
"4","19","free","220","72","93","blue-63","blue","574","sampling-task","64","595591","0.0-5.0-0.52-0.52","60","2ja57wc3","high"
"4","20","free","220","72","66","blue-43","blue","526","sampling-task","65","597119","0.0-5.0-0.53-0.53","60","2ja57wc3","high"
"4","21","free","220","72","82","blue-111","blue","630","sampling-task","66","598871","0.0-5.0-0.54-0.54","60","2ja57wc3","high"
"4","22","free","220","72","98","blue-77","blue","582","sampling-task","67","600584","0.0-5.0-0.55-0.55","60","2ja57wc3","high"
"4","23","free","220","72","66","blue-159","blue","686","sampling-task","68","602231","0.0-5.0-0.56-0.56","60","2ja57wc3","high"
"4","24","free","220","72","61","blue-70","blue","742","sampling-task","69","603840","0.0-5.0-0.57-0.57","60","2ja57wc3","high"
"4","25","free","220","72","78","blue-169","blue","1390","sampling-task","70","606652","0.0-5.0-0.58-0.58","60","2ja57wc3","high"
"5","1","fixed","20","31","7","green-187","green","3044","sampling-task","73","633524","0.0-5.0-0.59-0.59","60","2ja57wc3","high"
"5","2","fixed","20","31","36","green-205","green","878","sampling-task","74","635908","0.0-5.0-0.60-0.60","60","2ja57wc3","high"
"5","3","fixed","20","31","59","green-76","green","886","sampling-task","75","638636","0.0-5.0-0.61-0.61","60","2ja57wc3","high"
"5","4","fixed","20","31","26","green-11","green","934","sampling-task","76","643308","0.0-5.0-0.62-0.62","60","2ja57wc3","high"
"5","5","fixed","20","31","46","green-172","green","837","sampling-task","77","648780","0.0-5.0-0.63-0.63","60","2ja57wc3","high"
"5","6","fixed","20","31","17","green-152","green","709","sampling-task","78","651884","0.0-5.0-0.64-0.64","60","2ja57wc3","high"
"5","7","fixed","20","31","43","green-154","green","599","sampling-task","79","653980","0.0-5.0-0.65-0.65","60","2ja57wc3","high"
"5","8","fixed","20","31","49","green-189","green","750","sampling-task","80","656332","0.0-5.0-0.66-0.66","60","2ja57wc3","high"
"5","9","fixed","20","31","51","green-4","green","758","sampling-task","81","658580","0.0-5.0-0.67-0.67","60","2ja57wc3","high"
"5","10","fixed","20","31","24","green-181","green","670","sampling-task","82","660940","0.0-5.0-0.68-0.68","60","2ja57wc3","high"
"5","11","fixed","20","31","57","green-62","green","1021","sampling-task","83","664212","0.0-5.0-0.69-0.69","60","2ja57wc3","high"
"5","12","fixed","20","31","27","green-45","green","502","sampling-task","84","667321","0.0-5.0-0.70-0.70","60","2ja57wc3","high"
"5","13","fixed","20","31","40","green-161","green","549","sampling-task","85","670297","0.0-5.0-0.71-0.71","60","2ja57wc3","high"
"5","14","fixed","20","31","14","green-113","green","557","sampling-task","86","672241","0.0-5.0-0.72-0.72","60","2ja57wc3","high"
"5","15","fixed","20","31","7","green-184","green","638","sampling-task","87","674233","0.0-5.0-0.73-0.73","60","2ja57wc3","high"
"5","16","fixed","20","31","34","green-151","green","750","sampling-task","88","676513","0.0-5.0-0.74-0.74","60","2ja57wc3","high"
"5","17","fixed","20","31","79","green-5","green","558","sampling-task","89","678465","0.0-5.0-0.75-0.75","60","2ja57wc3","high"
"5","18","fixed","20","31","20","green-164","green","534","sampling-task","90","680313","0.0-5.0-0.76-0.76","60","2ja57wc3","high"
"5","19","fixed","20","31","37","green-14","green","773","sampling-task","91","683273","0.0-5.0-0.77-0.77","60","2ja57wc3","high"
"5","20","fixed","20","31","11","green-32","green","790","sampling-task","92","685009","0.0-5.0-0.78-0.78","60","2ja57wc3","high"
"6","1","free","220","119","111","orange-170","orange","28017","sampling-task","95","739733","0.0-5.0-0.79-0.79","60","2ja57wc3","high"
"6","2","free","220","119","128","orange-1","orange","950","sampling-task","96","742261","0.0-5.0-0.80-0.80","60","2ja57wc3","high"
"6","3","free","220","119","104","orange-53","orange","894","sampling-task","97","746333","0.0-5.0-0.81-0.81","60","2ja57wc3","high"
"6","4","free","220","119","102","orange-76","orange","694","sampling-task","98","748957","0.0-5.0-0.82-0.82","60","2ja57wc3","high"
"6","5","free","220","119","123","orange-176","orange","622","sampling-task","99","751645","0.0-5.0-0.83-0.83","60","2ja57wc3","high"
"6","6","free","220","119","105","orange-50","orange","742","sampling-task","100","754901","0.0-5.0-0.84-0.84","60","2ja57wc3","high"
"6","7","free","220","119","101","orange-142","orange","566","sampling-task","101","756949","0.0-5.0-0.85-0.85","60","2ja57wc3","high"
"6","8","free","220","119","130","orange-219","orange","630","sampling-task","102","758837","0.0-5.0-0.86-0.86","60","2ja57wc3","high"
"6","9","free","220","119","116","orange-70","orange","694","sampling-task","103","760717","0.0-5.0-0.87-0.87","60","2ja57wc3","high"
"6","10","free","220","119","143","orange-84","orange","678","sampling-task","104","762485","0.0-5.0-0.88-0.88","60","2ja57wc3","high"
"6","11","free","220","119","86","orange-25","orange","1414","sampling-task","105","764966","0.0-5.0-0.89-0.89","60","2ja57wc3","high"
"6","12","free","220","119","67","orange-9","orange","638","sampling-task","106","767221","0.0-5.0-0.90-0.90","60","2ja57wc3","high"
"6","13","free","220","119","137","orange-38","orange","638","sampling-task","107","769389","0.0-5.0-0.91-0.91","60","2ja57wc3","high"
"6","14","free","220","119","97","orange-210","orange","582","sampling-task","108","771317","0.0-5.0-0.92-0.92","60","2ja57wc3","high"
"6","15","free","220","119","149","orange-10","orange","726","sampling-task","109","774005","0.0-5.0-0.93-0.93","60","2ja57wc3","high"
"6","16","free","220","119","143","orange-88","orange","678","sampling-task","110","777157","0.0-5.0-0.94-0.94","60","2ja57wc3","high"
"6","17","free","220","119","128","orange-75","orange","494","sampling-task","111","781485","0.0-5.0-0.95-0.95","60","2ja57wc3","high"
"6","18","free","220","119","125","orange-123","orange","494","sampling-task","112","785597","0.0-5.0-0.96-0.96","60","2ja57wc3","high"
"6","19","free","220","119","73","orange-21","orange","454","sampling-task","113","787261","0.0-5.0-0.97-0.97","60","2ja57wc3","high"
