"round_number","sample_number","sampling_type","nSamples","mean","feedback","stimulus","stimulus_colour","rt","trial_type","trial_index","time_elapsed","internal_node_id","participant","randomID","condition"
"1","1","fixed","5","110","121","blue-118","blue","6571","sampling-task","6","625366","0.0-5.0-0.0-0.0","117","oqb9vvyl","high"
"1","2","fixed","5","110","119","blue-11","blue","3022","sampling-task","7","633118","0.0-5.0-0.1-0.1","117","oqb9vvyl","high"
"1","3","fixed","5","110","136","blue-159","blue","2261","sampling-task","8","644158","0.0-5.0-0.2-0.2","117","oqb9vvyl","high"
"1","4","fixed","5","110","107","blue-40","blue","3630","sampling-task","9","652725","0.0-5.0-0.3-0.3","117","oqb9vvyl","high"
"1","5","fixed","5","110","125","blue-52","blue","18038","sampling-task","10","704651","0.0-5.0-0.4-0.4","117","oqb9vvyl","high"
"2","1","free","220","94","89","red-110","red","5196","sampling-task","13","780018","0.0-5.0-0.5-0.5","117","oqb9vvyl","high"
"2","2","free","220","94","109","red-160","red","5671","sampling-task","14","788986","0.0-5.0-0.6-0.6","117","oqb9vvyl","high"
"2","3","free","220","94","64","red-162","red","1845","sampling-task","15","795130","0.0-5.0-0.7-0.7","117","oqb9vvyl","high"
"2","4","free","220","94","58","red-197","red","1743","sampling-task","16","802986","0.0-5.0-0.8-0.8","117","oqb9vvyl","high"
"2","5","free","220","94","97","red-19","red","2198","sampling-task","17","812778","0.0-5.0-0.9-0.9","117","oqb9vvyl","high"
"2","6","free","220","94","118","red-175","red","4342","sampling-task","18","826921","0.0-5.0-0.10-0.10","117","oqb9vvyl","high"
"2","7","free","220","94","82","red-148","red","1726","sampling-task","19","832945","0.0-5.0-0.11-0.11","117","oqb9vvyl","high"
"2","8","free","220","94","98","red-177","red","3062","sampling-task","20","838689","0.0-5.0-0.12-0.12","117","oqb9vvyl","high"
"2","9","free","220","94","104","red-181","red","950","sampling-task","21","842177","0.0-5.0-0.13-0.13","117","oqb9vvyl","high"
"2","10","free","220","94","105","red-185","red","1774","sampling-task","22","846048","0.0-5.0-0.14-0.14","117","oqb9vvyl","high"
"2","11","free","220","94","99","red-104","red","1110","sampling-task","23","848537","0.0-5.0-0.15-0.15","117","oqb9vvyl","high"
"2","12","free","220","94","98","red-70","red","982","sampling-task","24","851137","0.0-5.0-0.16-0.16","117","oqb9vvyl","high"
"2","13","free","220","94","66","red-133","red","926","sampling-task","25","854768","0.0-5.0-0.17-0.17","117","oqb9vvyl","high"
"2","14","free","220","94","84","red-69","red","741","sampling-task","26","857089","0.0-5.0-0.18-0.18","117","oqb9vvyl","high"
"2","15","free","220","94","82","red-24","red","1310","sampling-task","27","862153","0.0-5.0-0.19-0.19","117","oqb9vvyl","high"
"2","16","free","220","94","85","red-205","red","598","sampling-task","28","865041","0.0-5.0-0.20-0.20","117","oqb9vvyl","high"
"3","1","fixed","10","31","39","purple-85","purple","10204","sampling-task","31","915335","0.0-5.0-0.21-0.21","117","oqb9vvyl","high"
"3","2","fixed","10","31","35","purple-85","purple","2382","sampling-task","32","920135","0.0-5.0-0.22-0.22","117","oqb9vvyl","high"
"3","3","fixed","10","31","81","purple-165","purple","934","sampling-task","33","924063","0.0-5.0-0.23-0.23","117","oqb9vvyl","high"
"3","4","fixed","10","31","22","purple-107","purple","1111","sampling-task","34","927135","0.0-5.0-0.24-0.24","117","oqb9vvyl","high"
"3","5","fixed","10","31","27","purple-196","purple","694","sampling-task","35","930319","0.0-5.0-0.25-0.25","117","oqb9vvyl","high"
"3","6","fixed","10","31","50","purple-178","purple","790","sampling-task","36","932871","0.0-5.0-0.26-0.26","117","oqb9vvyl","high"
"3","7","fixed","10","31","39","purple-209","purple","1830","sampling-task","37","937151","0.0-5.0-0.27-0.27","117","oqb9vvyl","high"
"3","8","fixed","10","31","28","purple-200","purple","654","sampling-task","38","940224","0.0-5.0-0.28-0.28","117","oqb9vvyl","high"
"3","9","fixed","10","31","37","purple-28","purple","766","sampling-task","39","944096","0.0-5.0-0.29-0.29","117","oqb9vvyl","high"
"3","10","fixed","10","31","20","purple-186","purple","870","sampling-task","40","946623","0.0-5.0-0.30-0.30","117","oqb9vvyl","high"
"4","1","free","220","55","36","orange-171","orange","5437","sampling-task","43","981958","0.0-5.0-0.31-0.31","117","oqb9vvyl","high"
"4","2","free","220","55","118","orange-205","orange","1622","sampling-task","44","985294","0.0-5.0-0.32-0.32","117","oqb9vvyl","high"
"4","3","free","220","55","74","orange-55","orange","1326","sampling-task","45","987917","0.0-5.0-0.33-0.33","117","oqb9vvyl","high"
"4","4","free","220","55","53","orange-98","orange","1638","sampling-task","46","991590","0.0-5.0-0.34-0.34","117","oqb9vvyl","high"
"4","5","free","220","55","65","orange-34","orange","1150","sampling-task","47","994534","0.0-5.0-0.35-0.35","117","oqb9vvyl","high"
"4","6","free","220","55","18","orange-22","orange","1053","sampling-task","48","996926","0.0-5.0-0.36-0.36","117","oqb9vvyl","high"
"4","7","free","220","55","58","orange-119","orange","942","sampling-task","49","998846","0.0-5.0-0.37-0.37","117","oqb9vvyl","high"
"4","8","free","220","55","58","orange-44","orange","1638","sampling-task","50","1003982","0.0-5.0-0.38-0.38","117","oqb9vvyl","high"
"4","9","free","220","55","57","orange-212","orange","766","sampling-task","51","1006038","0.0-5.0-0.39-0.39","117","oqb9vvyl","high"
"4","10","free","220","55","77","orange-11","orange","582","sampling-task","52","1008077","0.0-5.0-0.40-0.40","117","oqb9vvyl","high"
"4","11","free","220","55","52","orange-94","orange","478","sampling-task","53","1010795","0.0-5.0-0.41-0.41","117","oqb9vvyl","high"
"5","1","fixed","20","19","49","yellow-95","yellow","3564","sampling-task","56","1040955","0.0-5.0-0.42-0.42","117","oqb9vvyl","high"
"5","2","fixed","20","19","39","yellow-82","yellow","2278","sampling-task","57","1044731","0.0-5.0-0.43-0.43","117","oqb9vvyl","high"
"5","3","fixed","20","19","-3","yellow-28","yellow","902","sampling-task","58","1047539","0.0-5.0-0.44-0.44","117","oqb9vvyl","high"
"5","4","fixed","20","19","8","yellow-195","yellow","806","sampling-task","59","1049643","0.0-5.0-0.45-0.45","117","oqb9vvyl","high"
"5","5","fixed","20","19","26","yellow-49","yellow","718","sampling-task","60","1051395","0.0-5.0-0.46-0.46","117","oqb9vvyl","high"
"5","6","fixed","20","19","16","yellow-32","yellow","694","sampling-task","61","1053252","0.0-5.0-0.47-0.47","117","oqb9vvyl","high"
"5","7","fixed","20","19","41","yellow-81","yellow","774","sampling-task","62","1055467","0.0-5.0-0.48-0.48","117","oqb9vvyl","high"
"5","8","fixed","20","19","25","yellow-13","yellow","718","sampling-task","63","1057859","0.0-5.0-0.49-0.49","117","oqb9vvyl","high"
"5","9","fixed","20","19","8","yellow-17","yellow","574","sampling-task","64","1059763","0.0-5.0-0.50-0.50","117","oqb9vvyl","high"
"5","10","fixed","20","19","7","yellow-57","yellow","886","sampling-task","65","1061923","0.0-5.0-0.51-0.51","117","oqb9vvyl","high"
"5","11","fixed","20","19","22","yellow-197","yellow","662","sampling-task","66","1064587","0.0-5.0-0.52-0.52","117","oqb9vvyl","high"
"5","12","fixed","20","19","15","yellow-198","yellow","486","sampling-task","67","1066203","0.0-5.0-0.53-0.53","117","oqb9vvyl","high"
"5","13","fixed","20","19","8","yellow-70","yellow","582","sampling-task","68","1067859","0.0-5.0-0.54-0.54","117","oqb9vvyl","high"
"5","14","fixed","20","19","-8","yellow-114","yellow","806","sampling-task","69","1069739","0.0-5.0-0.55-0.55","117","oqb9vvyl","high"
"5","15","fixed","20","19","12","yellow-66","yellow","814","sampling-task","70","1071698","0.0-5.0-0.56-0.56","117","oqb9vvyl","high"
"5","16","fixed","20","19","26","yellow-160","yellow","806","sampling-task","71","1073938","0.0-5.0-0.57-0.57","117","oqb9vvyl","high"
"5","17","fixed","20","19","-4","yellow-106","yellow","845","sampling-task","72","1076026","0.0-5.0-0.58-0.58","117","oqb9vvyl","high"
"5","18","fixed","20","19","13","yellow-31","yellow","686","sampling-task","73","1078306","0.0-5.0-0.59-0.59","117","oqb9vvyl","high"
"5","19","fixed","20","19","-2","yellow-130","yellow","662","sampling-task","74","1080298","0.0-5.0-0.60-0.60","117","oqb9vvyl","high"
"5","20","fixed","20","19","21","yellow-8","yellow","534","sampling-task","75","1083314","0.0-5.0-0.61-0.61","117","oqb9vvyl","high"
"6","1","free","220","71","69","green-202","green","2964","sampling-task","78","1118042","0.0-5.0-0.62-0.62","117","oqb9vvyl","high"
"6","2","free","220","71","21","green-138","green","750","sampling-task","79","1120218","0.0-5.0-0.63-0.63","117","oqb9vvyl","high"
"6","3","free","220","71","58","green-141","green","855","sampling-task","80","1122194","0.0-5.0-0.64-0.64","117","oqb9vvyl","high"
"6","4","free","220","71","30","green-125","green","669","sampling-task","81","1123818","0.0-5.0-0.65-0.65","117","oqb9vvyl","high"
"6","5","free","220","71","60","green-7","green","782","sampling-task","82","1125978","0.0-5.0-0.66-0.66","117","oqb9vvyl","high"
"6","6","free","220","71","78","green-102","green","766","sampling-task","83","1127850","0.0-5.0-0.67-0.67","117","oqb9vvyl","high"
"6","7","free","220","71","70","green-79","green","685","sampling-task","84","1129714","0.0-5.0-0.68-0.68","117","oqb9vvyl","high"
"6","8","free","220","71","55","green-206","green","573","sampling-task","85","1131298","0.0-5.0-0.69-0.69","117","oqb9vvyl","high"
"6","9","free","220","71","44","green-156","green","636","sampling-task","86","1132905","0.0-5.0-0.70-0.70","117","oqb9vvyl","high"
"6","10","free","220","71","88","green-111","green","542","sampling-task","87","1134409","0.0-5.0-0.71-0.71","117","oqb9vvyl","high"
"6","11","free","220","71","62","green-75","green","533","sampling-task","88","1135977","0.0-5.0-0.72-0.72","117","oqb9vvyl","high"
"6","12","free","220","71","95","green-102","green","453","sampling-task","89","1139369","0.0-5.0-0.73-0.73","117","oqb9vvyl","high"
