"round_number","sample_number","sampling_type","nSamples","mean","feedback","stimulus","stimulus_colour","rt","trial_type","trial_index","time_elapsed","internal_node_id","participant","randomID","condition"
"1","1","fixed","20","96","118","red-137","red","12847","sampling-task","6","1049722","0.0-5.0-0.0-0.0","113","ac4msxxn","high"
"1","2","fixed","20","96","64","red-56","red","5510","sampling-task","7","1058705","0.0-5.0-0.1-0.1","113","ac4msxxn","high"
"1","3","fixed","20","96","115","red-152","red","3390","sampling-task","8","1065262","0.0-5.0-0.2-0.2","113","ac4msxxn","high"
"1","4","fixed","20","96","106","red-182","red","3518","sampling-task","9","1072014","0.0-5.0-0.3-0.3","113","ac4msxxn","high"
"1","5","fixed","20","96","103","red-22","red","3758","sampling-task","10","1078350","0.0-5.0-0.4-0.4","113","ac4msxxn","high"
"1","6","fixed","20","96","75","red-198","red","2166","sampling-task","11","1084086","0.0-5.0-0.5-0.5","113","ac4msxxn","high"
"1","7","fixed","20","96","94","red-200","red","2166","sampling-task","12","1088174","0.0-5.0-0.6-0.6","113","ac4msxxn","high"
"1","8","fixed","20","96","93","red-50","red","2174","sampling-task","13","1092006","0.0-5.0-0.7-0.7","113","ac4msxxn","high"
"1","9","fixed","20","96","90","red-171","red","2590","sampling-task","14","1096998","0.0-5.0-0.8-0.8","113","ac4msxxn","high"
"1","10","fixed","20","96","96","red-69","red","1182","sampling-task","15","1100247","0.0-5.0-0.9-0.9","113","ac4msxxn","high"
"1","11","fixed","20","96","109","red-69","red","1286","sampling-task","16","1102902","0.0-5.0-0.10-0.10","113","ac4msxxn","high"
"1","12","fixed","20","96","66","red-131","red","2590","sampling-task","17","1107190","0.0-5.0-0.11-0.11","113","ac4msxxn","high"
"1","13","fixed","20","96","83","red-111","red","2158","sampling-task","18","1111566","0.0-5.0-0.12-0.12","113","ac4msxxn","high"
"1","14","fixed","20","96","116","red-152","red","2470","sampling-task","19","1115574","0.0-5.0-0.13-0.13","113","ac4msxxn","high"
"1","15","fixed","20","96","79","red-146","red","3358","sampling-task","20","1122239","0.0-5.0-0.14-0.14","113","ac4msxxn","high"
"1","16","fixed","20","96","124","red-18","red","2174","sampling-task","21","1126260","0.0-5.0-0.15-0.15","113","ac4msxxn","high"
"1","17","fixed","20","96","84","red-66","red","4286","sampling-task","22","1131996","0.0-5.0-0.16-0.16","113","ac4msxxn","high"
"1","18","fixed","20","96","67","red-145","red","1838","sampling-task","23","1138004","0.0-5.0-0.17-0.17","113","ac4msxxn","high"
"1","19","fixed","20","96","63","red-67","red","1765","sampling-task","24","1141340","0.0-5.0-0.18-0.18","113","ac4msxxn","high"
"1","20","fixed","20","96","77","red-72","red","1502","sampling-task","25","1144012","0.0-5.0-0.19-0.19","113","ac4msxxn","high"
"2","1","free","220","79","123","orange-164","orange","9705","sampling-task","28","1193409","0.0-5.0-0.20-0.20","113","ac4msxxn","high"
"2","2","free","220","79","87","orange-89","orange","2126","sampling-task","29","1198729","0.0-5.0-0.21-0.21","113","ac4msxxn","high"
"2","3","free","220","79","114","orange-10","orange","2638","sampling-task","30","1203969","0.0-5.0-0.22-0.22","113","ac4msxxn","high"
"2","4","free","220","79","118","orange-178","orange","1878","sampling-task","31","1207625","0.0-5.0-0.23-0.23","113","ac4msxxn","high"
"2","5","free","220","79","61","orange-143","orange","1038","sampling-task","32","1210368","0.0-5.0-0.24-0.24","113","ac4msxxn","high"
"2","6","free","220","79","81","orange-15","orange","2494","sampling-task","33","1214281","0.0-5.0-0.25-0.25","113","ac4msxxn","high"
"2","7","free","220","79","113","orange-193","orange","1118","sampling-task","34","1216937","0.0-5.0-0.26-0.26","113","ac4msxxn","high"
"2","8","free","220","79","64","orange-112","orange","1366","sampling-task","35","1222561","0.0-5.0-0.27-0.27","113","ac4msxxn","high"
"2","9","free","220","79","65","orange-27","orange","1294","sampling-task","36","1225321","0.0-5.0-0.28-0.28","113","ac4msxxn","high"
"2","10","free","220","79","58","orange-162","orange","1086","sampling-task","37","1227721","0.0-5.0-0.29-0.29","113","ac4msxxn","high"
"2","11","free","220","79","75","orange-148","orange","1070","sampling-task","38","1230073","0.0-5.0-0.30-0.30","113","ac4msxxn","high"
"2","12","free","220","79","49","orange-41","orange","1062","sampling-task","39","1232369","0.0-5.0-0.31-0.31","113","ac4msxxn","high"
"2","13","free","220","79","105","orange-220","orange","966","sampling-task","40","1234489","0.0-5.0-0.32-0.32","113","ac4msxxn","high"
"2","14","free","220","79","45","orange-7","orange","942","sampling-task","41","1237065","0.0-5.0-0.33-0.33","113","ac4msxxn","high"
"2","15","free","220","79","97","orange-209","orange","1134","sampling-task","42","1241225","0.0-5.0-0.34-0.34","113","ac4msxxn","high"
"2","16","free","220","79","76","orange-5","orange","982","sampling-task","43","1243129","0.0-5.0-0.35-0.35","113","ac4msxxn","high"
"2","17","free","220","79","88","orange-138","orange","902","sampling-task","44","1245081","0.0-5.0-0.36-0.36","113","ac4msxxn","high"
"2","18","free","220","79","86","orange-82","orange","1358","sampling-task","45","1247865","0.0-5.0-0.37-0.37","113","ac4msxxn","high"
"2","19","free","220","79","77","orange-67","orange","1097","sampling-task","46","1250140","0.0-5.0-0.38-0.38","113","ac4msxxn","high"
"2","20","free","220","79","80","orange-30","orange","998","sampling-task","47","1252604","0.0-5.0-0.39-0.39","113","ac4msxxn","high"
"2","21","free","220","79","114","orange-52","orange","933","sampling-task","48","1255748","0.0-5.0-0.40-0.40","113","ac4msxxn","high"
"2","22","free","220","79","80","orange-53","orange","1254","sampling-task","49","1258068","0.0-5.0-0.41-0.41","113","ac4msxxn","high"
"2","23","free","220","79","68","orange-33","orange","1110","sampling-task","50","1260404","0.0-5.0-0.42-0.42","113","ac4msxxn","high"
"2","24","free","220","79","29","orange-59","orange","854","sampling-task","51","1263604","0.0-5.0-0.43-0.43","113","ac4msxxn","high"
"2","25","free","220","79","74","orange-66","orange","838","sampling-task","52","1265764","0.0-5.0-0.44-0.44","113","ac4msxxn","high"
"2","26","free","220","79","78","orange-91","orange","1422","sampling-task","53","1268612","0.0-5.0-0.45-0.45","113","ac4msxxn","high"
"2","27","free","220","79","98","orange-71","orange","1518","sampling-task","54","1271796","0.0-5.0-0.46-0.46","113","ac4msxxn","high"
"2","28","free","220","79","57","orange-49","orange","806","sampling-task","55","1273644","0.0-5.0-0.47-0.47","113","ac4msxxn","high"
"2","29","free","220","79","90","orange-84","orange","1414","sampling-task","56","1276004","0.0-5.0-0.48-0.48","113","ac4msxxn","high"
"2","30","free","220","79","61","orange-117","orange","1414","sampling-task","57","1278316","0.0-5.0-0.49-0.49","113","ac4msxxn","high"
"2","31","free","220","79","99","orange-171","orange","1189","sampling-task","58","1280396","0.0-5.0-0.50-0.50","113","ac4msxxn","high"
"2","32","free","220","79","54","orange-68","orange","878","sampling-task","59","1282108","0.0-5.0-0.51-0.51","113","ac4msxxn","high"
"2","33","free","220","79","88","orange-216","orange","758","sampling-task","60","1284100","0.0-5.0-0.52-0.52","113","ac4msxxn","high"
"2","34","free","220","79","94","orange-73","orange","757","sampling-task","61","1285916","0.0-5.0-0.53-0.53","113","ac4msxxn","high"
"2","35","free","220","79","73","orange-213","orange","758","sampling-task","62","1287572","0.0-5.0-0.54-0.54","113","ac4msxxn","high"
"2","36","free","220","79","81","orange-120","orange","718","sampling-task","63","1289148","0.0-5.0-0.55-0.55","113","ac4msxxn","high"
"2","37","free","220","79","76","orange-163","orange","726","sampling-task","64","1291180","0.0-5.0-0.56-0.56","113","ac4msxxn","high"
"2","38","free","220","79","79","orange-216","orange","757","sampling-task","65","1292836","0.0-5.0-0.57-0.57","113","ac4msxxn","high"
"2","39","free","220","79","80","orange-127","orange","1742","sampling-task","66","1295628","0.0-5.0-0.58-0.58","113","ac4msxxn","high"
"2","40","free","220","79","75","orange-20","orange","782","sampling-task","67","1297660","0.0-5.0-0.59-0.59","113","ac4msxxn","high"
"2","41","free","220","79","50","orange-23","orange","7310","sampling-task","68","1306052","0.0-5.0-0.60-0.60","113","ac4msxxn","high"
"2","42","free","220","79","56","orange-157","orange","925","sampling-task","69","1308796","0.0-5.0-0.61-0.61","113","ac4msxxn","high"
"3","1","fixed","5","111","89","blue-21","blue","5620","sampling-task","72","1344843","0.0-5.0-0.62-0.62","113","ac4msxxn","high"
"3","2","fixed","5","111","119","blue-205","blue","1389","sampling-task","73","1347939","0.0-5.0-0.63-0.63","113","ac4msxxn","high"
"3","3","fixed","5","111","118","blue-53","blue","1302","sampling-task","74","1350371","0.0-5.0-0.64-0.64","113","ac4msxxn","high"
"3","4","fixed","5","111","107","blue-46","blue","1254","sampling-task","75","1352995","0.0-5.0-0.65-0.65","113","ac4msxxn","high"
"3","5","fixed","5","111","109","blue-11","blue","853","sampling-task","76","1354987","0.0-5.0-0.66-0.66","113","ac4msxxn","high"
"4","1","free","220","34","47","yellow-28","yellow","3388","sampling-task","79","1382216","0.0-5.0-0.67-0.67","113","ac4msxxn","high"
"4","2","free","220","34","38","yellow-174","yellow","1413","sampling-task","80","1384544","0.0-5.0-0.68-0.68","113","ac4msxxn","high"
"4","3","free","220","34","43","yellow-38","yellow","789","sampling-task","81","1387016","0.0-5.0-0.69-0.69","113","ac4msxxn","high"
"4","4","free","220","34","22","yellow-168","yellow","838","sampling-task","82","1389032","0.0-5.0-0.70-0.70","113","ac4msxxn","high"
"4","5","free","220","34","8","yellow-206","yellow","749","sampling-task","83","1391920","0.0-5.0-0.71-0.71","113","ac4msxxn","high"
"4","6","free","220","34","58","yellow-11","yellow","1413","sampling-task","84","1395120","0.0-5.0-0.72-0.72","113","ac4msxxn","high"
"4","7","free","220","34","62","yellow-204","yellow","1101","sampling-task","85","1397608","0.0-5.0-0.73-0.73","113","ac4msxxn","high"
"4","8","free","220","34","6","yellow-11","yellow","789","sampling-task","86","1399689","0.0-5.0-0.74-0.74","113","ac4msxxn","high"
"4","9","free","220","34","48","yellow-74","yellow","741","sampling-task","87","1401632","0.0-5.0-0.75-0.75","113","ac4msxxn","high"
"4","10","free","220","34","59","yellow-101","yellow","678","sampling-task","88","1403376","0.0-5.0-0.76-0.76","113","ac4msxxn","high"
"4","11","free","220","34","20","yellow-76","yellow","510","sampling-task","89","1404712","0.0-5.0-0.77-0.77","113","ac4msxxn","high"
"4","12","free","220","34","29","yellow-80","yellow","445","sampling-task","90","1406344","0.0-5.0-0.78-0.78","113","ac4msxxn","high"
"4","13","free","220","34","46","yellow-136","yellow","518","sampling-task","91","1407720","0.0-5.0-0.79-0.79","113","ac4msxxn","high"
"4","14","free","220","34","70","yellow-95","yellow","478","sampling-task","92","1409040","0.0-5.0-0.80-0.80","113","ac4msxxn","high"
"4","15","free","220","34","18","yellow-184","yellow","502","sampling-task","93","1410568","0.0-5.0-0.81-0.81","113","ac4msxxn","high"
"4","16","free","220","34","36","yellow-210","yellow","566","sampling-task","94","1412352","0.0-5.0-0.82-0.82","113","ac4msxxn","high"
"4","17","free","220","34","43","yellow-109","yellow","590","sampling-task","95","1413744","0.0-5.0-0.83-0.83","113","ac4msxxn","high"
"4","18","free","220","34","48","yellow-64","yellow","542","sampling-task","96","1415096","0.0-5.0-0.84-0.84","113","ac4msxxn","high"
"4","19","free","220","34","64","yellow-106","yellow","462","sampling-task","97","1416504","0.0-5.0-0.85-0.85","113","ac4msxxn","high"
"4","20","free","220","34","50","yellow-85","yellow","518","sampling-task","98","1417808","0.0-5.0-0.86-0.86","113","ac4msxxn","high"
"4","21","free","220","34","51","yellow-17","yellow","487","sampling-task","99","1419048","0.0-5.0-0.87-0.87","113","ac4msxxn","high"
"4","22","free","220","34","33","yellow-164","yellow","677","sampling-task","100","1420568","0.0-5.0-0.88-0.88","113","ac4msxxn","high"
"4","23","free","220","34","-18","yellow-56","yellow","502","sampling-task","101","1421936","0.0-5.0-0.89-0.89","113","ac4msxxn","high"
"4","24","free","220","34","65","yellow-186","yellow","550","sampling-task","102","1423696","0.0-5.0-0.90-0.90","113","ac4msxxn","high"
"4","25","free","220","34","44","yellow-130","yellow","581","sampling-task","103","1425368","0.0-5.0-0.91-0.91","113","ac4msxxn","high"
"4","26","free","220","34","-4","yellow-19","yellow","526","sampling-task","104","1427040","0.0-5.0-0.92-0.92","113","ac4msxxn","high"
"4","27","free","220","34","42","yellow-150","yellow","1302","sampling-task","105","1429880","0.0-5.0-0.93-0.93","113","ac4msxxn","high"
"5","1","fixed","10","58","51","green-36","green","2012","sampling-task","108","1453558","0.0-5.0-0.94-0.94","113","ac4msxxn","high"
"5","2","fixed","10","58","30","green-96","green","677","sampling-task","109","1455286","0.0-5.0-0.95-0.95","113","ac4msxxn","high"
"5","3","fixed","10","58","36","green-202","green","694","sampling-task","110","1457230","0.0-5.0-0.96-0.96","113","ac4msxxn","high"
"5","4","fixed","10","58","67","green-109","green","702","sampling-task","111","1458782","0.0-5.0-0.97-0.97","113","ac4msxxn","high"
"5","5","fixed","10","58","59","green-37","green","709","sampling-task","112","1460638","0.0-5.0-0.98-0.98","113","ac4msxxn","high"
"5","6","fixed","10","58","68","green-156","green","661","sampling-task","113","1462102","0.0-5.0-0.99-0.99","113","ac4msxxn","high"
"5","7","fixed","10","58","27","green-86","green","630","sampling-task","114","1464254","0.0-5.0-0.100-0.100","113","ac4msxxn","high"
"5","8","fixed","10","58","60","green-129","green","677","sampling-task","115","1465830","0.0-5.0-0.101-0.101","113","ac4msxxn","high"
"5","9","fixed","10","58","44","green-58","green","629","sampling-task","116","1467358","0.0-5.0-0.102-0.102","113","ac4msxxn","high"
"5","10","fixed","10","58","68","green-110","green","717","sampling-task","117","1469006","0.0-5.0-0.103-0.103","113","ac4msxxn","high"
"6","1","free","220","16","9","purple-152","purple","2308","sampling-task","120","1490838","0.0-5.0-0.104-0.104","113","ac4msxxn","high"
"6","2","free","220","16","31","purple-201","purple","645","sampling-task","121","1492494","0.0-5.0-0.105-0.105","113","ac4msxxn","high"
"6","3","free","220","16","54","purple-207","purple","613","sampling-task","122","1494190","0.0-5.0-0.106-0.106","113","ac4msxxn","high"
"6","4","free","220","16","14","purple-211","purple","500","sampling-task","123","1495526","0.0-5.0-0.107-0.107","113","ac4msxxn","high"
"6","5","free","220","16","8","purple-81","purple","454","sampling-task","124","1496779","0.0-5.0-0.108-0.108","113","ac4msxxn","high"
"6","6","free","220","16","23","purple-175","purple","446","sampling-task","125","1498203","0.0-5.0-0.109-0.109","113","ac4msxxn","high"
"6","7","free","220","16","51","purple-14","purple","398","sampling-task","126","1499603","0.0-5.0-0.110-0.110","113","ac4msxxn","high"
"6","8","free","220","16","19","purple-57","purple","414","sampling-task","127","1501275","0.0-5.0-0.111-0.111","113","ac4msxxn","high"
"6","9","free","220","16","-6","purple-6","purple","414","sampling-task","128","1502635","0.0-5.0-0.112-0.112","113","ac4msxxn","high"
"6","10","free","220","16","34","purple-56","purple","581","sampling-task","129","1504019","0.0-5.0-0.113-0.113","113","ac4msxxn","high"
"6","11","free","220","16","33","purple-64","purple","414","sampling-task","130","1505539","0.0-5.0-0.114-0.114","113","ac4msxxn","high"
"6","12","free","220","16","11","purple-170","purple","413","sampling-task","131","1506795","0.0-5.0-0.115-0.115","113","ac4msxxn","high"
"6","13","free","220","16","8","purple-118","purple","430","sampling-task","132","1508027","0.0-5.0-0.116-0.116","113","ac4msxxn","high"
"6","14","free","220","16","-20","purple-47","purple","422","sampling-task","133","1509515","0.0-5.0-0.117-0.117","113","ac4msxxn","high"
"6","15","free","220","16","19","purple-106","purple","406","sampling-task","134","1511099","0.0-5.0-0.118-0.118","113","ac4msxxn","high"
"6","16","free","220","16","10","purple-212","purple","366","sampling-task","135","1512507","0.0-5.0-0.119-0.119","113","ac4msxxn","high"
"6","17","free","220","16","35","purple-81","purple","406","sampling-task","136","1513835","0.0-5.0-0.120-0.120","113","ac4msxxn","high"
"6","18","free","220","16","46","purple-156","purple","414","sampling-task","137","1515067","0.0-5.0-0.121-0.121","113","ac4msxxn","high"
"6","19","free","220","16","14","purple-107","purple","398","sampling-task","138","1516299","0.0-5.0-0.122-0.122","113","ac4msxxn","high"
"6","20","free","220","16","-9","purple-179","purple","398","sampling-task","139","1517523","0.0-5.0-0.123-0.123","113","ac4msxxn","high"
"6","21","free","220","16","40","purple-156","purple","366","sampling-task","140","1518724","0.0-5.0-0.124-0.124","113","ac4msxxn","high"
"6","22","free","220","16","-2","purple-91","purple","339","sampling-task","141","1520124","0.0-5.0-0.125-0.125","113","ac4msxxn","high"
"6","23","free","220","16","-13","purple-116","purple","414","sampling-task","142","1521411","0.0-5.0-0.126-0.126","113","ac4msxxn","high"
"6","24","free","220","16","-1","purple-41","purple","374","sampling-task","143","1522715","0.0-5.0-0.127-0.127","113","ac4msxxn","high"
"6","25","free","220","16","12","purple-128","purple","326","sampling-task","144","1523867","0.0-5.0-0.128-0.128","113","ac4msxxn","high"
"6","26","free","220","16","-5","purple-123","purple","398","sampling-task","145","1525076","0.0-5.0-0.129-0.129","113","ac4msxxn","high"
"6","27","free","220","16","-5","purple-111","purple","389","sampling-task","146","1526267","0.0-5.0-0.130-0.130","113","ac4msxxn","high"
"6","28","free","220","16","32","purple-212","purple","374","sampling-task","147","1527427","0.0-5.0-0.131-0.131","113","ac4msxxn","high"
"6","29","free","220","16","22","purple-114","purple","382","sampling-task","148","1528859","0.0-5.0-0.132-0.132","113","ac4msxxn","high"
"6","30","free","220","16","24","purple-147","purple","422","sampling-task","149","1530083","0.0-5.0-0.133-0.133","113","ac4msxxn","high"
"6","31","free","220","16","6","purple-13","purple","430","sampling-task","150","1531315","0.0-5.0-0.134-0.134","113","ac4msxxn","high"
"6","32","free","220","16","0","purple-160","purple","406","sampling-task","151","1533059","0.0-5.0-0.135-0.135","113","ac4msxxn","high"
"6","33","free","220","16","7","purple-136","purple","502","sampling-task","152","1534443","0.0-5.0-0.136-0.136","113","ac4msxxn","high"
"6","34","free","220","16","17","purple-127","purple","390","sampling-task","153","1536115","0.0-5.0-0.137-0.137","113","ac4msxxn","high"
