"round_number","sample_number","sampling_type","nSamples","mean","feedback","stimulus","stimulus_colour","rt","trial_type","trial_index","time_elapsed","internal_node_id","participant","randomID","condition"
"1","1","fixed","5","59","42","yellow-21","yellow","1826","sampling-task","24","903834","0.0-5.0-0.0-0.0","78","t1h1smup","high"
"1","2","fixed","5","59","42","yellow-175","yellow","1766","sampling-task","25","908010","0.0-5.0-0.1-0.1","78","t1h1smup","high"
"1","3","fixed","5","59","24","yellow-89","yellow","2062","sampling-task","26","911330","0.0-5.0-0.2-0.2","78","t1h1smup","high"
"1","4","fixed","5","59","89","yellow-32","yellow","902","sampling-task","27","913873","0.0-5.0-0.3-0.3","78","t1h1smup","high"
"1","5","fixed","5","59","73","yellow-98","yellow","878","sampling-task","28","915802","0.0-5.0-0.4-0.4","78","t1h1smup","high"
"2","1","free","220","76","24","blue-32","blue","940","sampling-task","31","957743","0.0-5.0-0.5-0.5","78","t1h1smup","high"
"2","2","free","220","76","66","blue-91","blue","974","sampling-task","32","960135","0.0-5.0-0.6-0.6","78","t1h1smup","high"
"2","3","free","220","76","61","blue-185","blue","798","sampling-task","33","962175","0.0-5.0-0.7-0.7","78","t1h1smup","high"
"2","4","free","220","76","66","blue-48","blue","774","sampling-task","34","964831","0.0-5.0-0.8-0.8","78","t1h1smup","high"
"3","1","fixed","20","99","100","purple-84","purple","980","sampling-task","37","988077","0.0-5.0-0.9-0.9","78","t1h1smup","high"
"3","2","fixed","20","99","120","purple-90","purple","566","sampling-task","38","989740","0.0-5.0-0.10-0.10","78","t1h1smup","high"
"3","3","fixed","20","99","100","purple-208","purple","654","sampling-task","39","991525","0.0-5.0-0.11-0.11","78","t1h1smup","high"
"3","4","fixed","20","99","99","purple-44","purple","502","sampling-task","40","992940","0.0-5.0-0.12-0.12","78","t1h1smup","high"
"3","5","fixed","20","99","83","purple-101","purple","766","sampling-task","41","994748","0.0-5.0-0.13-0.13","78","t1h1smup","high"
"3","6","fixed","20","99","122","purple-10","purple","566","sampling-task","42","996236","0.0-5.0-0.14-0.14","78","t1h1smup","high"
"3","7","fixed","20","99","75","purple-154","purple","542","sampling-task","43","997909","0.0-5.0-0.15-0.15","78","t1h1smup","high"
"3","8","fixed","20","99","90","purple-43","purple","582","sampling-task","44","999468","0.0-5.0-0.16-0.16","78","t1h1smup","high"
"3","9","fixed","20","99","55","purple-190","purple","958","sampling-task","45","1002012","0.0-5.0-0.17-0.17","78","t1h1smup","high"
"3","10","fixed","20","99","108","purple-129","purple","622","sampling-task","46","1003525","0.0-5.0-0.18-0.18","78","t1h1smup","high"
"3","11","fixed","20","99","104","purple-167","purple","566","sampling-task","47","1004932","0.0-5.0-0.19-0.19","78","t1h1smup","high"
"3","12","fixed","20","99","98","purple-177","purple","518","sampling-task","48","1006308","0.0-5.0-0.20-0.20","78","t1h1smup","high"
"3","13","fixed","20","99","111","purple-12","purple","542","sampling-task","49","1007692","0.0-5.0-0.21-0.21","78","t1h1smup","high"
"3","14","fixed","20","99","105","purple-175","purple","526","sampling-task","50","1009076","0.0-5.0-0.22-0.22","78","t1h1smup","high"
"3","15","fixed","20","99","125","purple-151","purple","542","sampling-task","51","1010428","0.0-5.0-0.23-0.23","78","t1h1smup","high"
"3","16","fixed","20","99","77","purple-143","purple","525","sampling-task","52","1011772","0.0-5.0-0.24-0.24","78","t1h1smup","high"
"3","17","fixed","20","99","123","purple-111","purple","478","sampling-task","53","1013116","0.0-5.0-0.25-0.25","78","t1h1smup","high"
"3","18","fixed","20","99","124","purple-37","purple","550","sampling-task","54","1014517","0.0-5.0-0.26-0.26","78","t1h1smup","high"
"3","19","fixed","20","99","76","purple-101","purple","486","sampling-task","55","1016061","0.0-5.0-0.27-0.27","78","t1h1smup","high"
"3","20","fixed","20","99","116","purple-122","purple","414","sampling-task","56","1017173","0.0-5.0-0.28-0.28","78","t1h1smup","high"
"4","1","free","220","16","5","green-196","green","845","sampling-task","59","1039212","0.0-5.0-0.29-0.29","78","t1h1smup","high"
"4","2","free","220","16","33","green-21","green","727","sampling-task","60","1041596","0.0-5.0-0.30-0.30","78","t1h1smup","high"
"4","3","free","220","16","17","green-138","green","674","sampling-task","61","1043601","0.0-5.0-0.31-0.31","78","t1h1smup","high"
"4","4","free","220","16","20","green-6","green","654","sampling-task","62","1046377","0.0-5.0-0.32-0.32","78","t1h1smup","high"
"4","5","free","220","16","30","green-20","green","438","sampling-task","63","1047857","0.0-5.0-0.33-0.33","78","t1h1smup","high"
"4","6","free","220","16","6","green-13","green","447","sampling-task","64","1049121","0.0-5.0-0.34-0.34","78","t1h1smup","high"
"4","7","free","220","16","12","green-49","green","495","sampling-task","65","1050762","0.0-5.0-0.35-0.35","78","t1h1smup","high"
"4","8","free","220","16","9","green-140","green","477","sampling-task","66","1052113","0.0-5.0-0.36-0.36","78","t1h1smup","high"
"4","9","free","220","16","32","green-13","green","534","sampling-task","67","1053505","0.0-5.0-0.37-0.37","78","t1h1smup","high"
"4","10","free","220","16","28","green-194","green","623","sampling-task","68","1055009","0.0-5.0-0.38-0.38","78","t1h1smup","high"
"4","11","free","220","16","27","green-198","green","471","sampling-task","69","1056409","0.0-5.0-0.39-0.39","78","t1h1smup","high"
"4","12","free","220","16","12","green-72","green","503","sampling-task","70","1057769","0.0-5.0-0.40-0.40","78","t1h1smup","high"
"4","13","free","220","16","26","green-177","green","607","sampling-task","71","1059401","0.0-5.0-0.41-0.41","78","t1h1smup","high"
"4","14","free","220","16","19","green-201","green","527","sampling-task","72","1060841","0.0-5.0-0.42-0.42","78","t1h1smup","high"
"4","15","free","220","16","10","green-30","green","605","sampling-task","73","1062609","0.0-5.0-0.43-0.43","78","t1h1smup","high"
"4","16","free","220","16","24","green-10","green","511","sampling-task","74","1064313","0.0-5.0-0.44-0.44","78","t1h1smup","high"
"5","1","fixed","10","112","118","red-56","red","901","sampling-task","77","1079649","0.0-5.0-0.45-0.45","78","t1h1smup","high"
"5","2","fixed","10","112","121","red-166","red","709","sampling-task","78","1082305","0.0-5.0-0.46-0.46","78","t1h1smup","high"
"5","3","fixed","10","112","56","red-39","red","687","sampling-task","79","1083913","0.0-5.0-0.47-0.47","78","t1h1smup","high"
"5","4","fixed","10","112","119","red-14","red","686","sampling-task","80","1085513","0.0-5.0-0.48-0.48","78","t1h1smup","high"
"5","5","fixed","10","112","83","red-193","red","606","sampling-task","81","1087033","0.0-5.0-0.49-0.49","78","t1h1smup","high"
"5","6","fixed","10","112","126","red-167","red","646","sampling-task","82","1088705","0.0-5.0-0.50-0.50","78","t1h1smup","high"
"5","7","fixed","10","112","106","red-11","red","797","sampling-task","83","1090465","0.0-5.0-0.51-0.51","78","t1h1smup","high"
"5","8","fixed","10","112","86","red-109","red","678","sampling-task","84","1092025","0.0-5.0-0.52-0.52","78","t1h1smup","high"
"5","9","fixed","10","112","108","red-60","red","734","sampling-task","85","1094073","0.0-5.0-0.53-0.53","78","t1h1smup","high"
"5","10","fixed","10","112","86","red-196","red","1054","sampling-task","86","1096609","0.0-5.0-0.54-0.54","78","t1h1smup","high"
"6","1","free","220","34","59","orange-71","orange","772","sampling-task","89","1115407","0.0-5.0-0.55-0.55","78","t1h1smup","high"
"6","2","free","220","34","3","orange-126","orange","423","sampling-task","90","1116695","0.0-5.0-0.56-0.56","78","t1h1smup","high"
"6","3","free","220","34","27","orange-178","orange","430","sampling-task","91","1118047","0.0-5.0-0.57-0.57","78","t1h1smup","high"
"6","4","free","220","34","42","orange-161","orange","470","sampling-task","92","1119391","0.0-5.0-0.58-0.58","78","t1h1smup","high"
"6","5","free","220","34","38","orange-130","orange","510","sampling-task","93","1120775","0.0-5.0-0.59-0.59","78","t1h1smup","high"
"6","6","free","220","34","5","orange-126","orange","462","sampling-task","94","1121960","0.0-5.0-0.60-0.60","78","t1h1smup","high"
"6","7","free","220","34","25","orange-129","orange","606","sampling-task","95","1123535","0.0-5.0-0.61-0.61","78","t1h1smup","high"
"6","8","free","220","34","31","orange-125","orange","470","sampling-task","96","1124863","0.0-5.0-0.62-0.62","78","t1h1smup","high"
"6","9","free","220","34","49","orange-8","orange","438","sampling-task","97","1126152","0.0-5.0-0.63-0.63","78","t1h1smup","high"
"6","10","free","220","34","48","orange-184","orange","446","sampling-task","98","1127519","0.0-5.0-0.64-0.64","78","t1h1smup","high"
"6","11","free","220","34","48","orange-161","orange","478","sampling-task","99","1128767","0.0-5.0-0.65-0.65","78","t1h1smup","high"
"6","12","free","220","34","69","orange-124","orange","478","sampling-task","100","1130271","0.0-5.0-0.66-0.66","78","t1h1smup","high"
"6","13","free","220","34","11","orange-143","orange","511","sampling-task","101","1131583","0.0-5.0-0.67-0.67","78","t1h1smup","high"
"6","14","free","220","34","-4","orange-188","orange","550","sampling-task","102","1133007","0.0-5.0-0.68-0.68","78","t1h1smup","high"
"6","15","free","220","34","13","orange-134","orange","534","sampling-task","103","1134895","0.0-5.0-0.69-0.69","78","t1h1smup","high"
"6","16","free","220","34","93","orange-42","orange","534","sampling-task","104","1136271","0.0-5.0-0.70-0.70","78","t1h1smup","high"
"6","17","free","220","34","41","orange-178","orange","598","sampling-task","105","1137599","0.0-5.0-0.71-0.71","78","t1h1smup","high"
"6","18","free","220","34","-5","orange-38","orange","662","sampling-task","106","1139087","0.0-5.0-0.72-0.72","78","t1h1smup","high"
"6","19","free","220","34","35","orange-212","orange","550","sampling-task","107","1140487","0.0-5.0-0.73-0.73","78","t1h1smup","high"
"6","20","free","220","34","-1","orange-135","orange","526","sampling-task","108","1141927","0.0-5.0-0.74-0.74","78","t1h1smup","high"
"6","21","free","220","34","18","orange-186","orange","837","sampling-task","109","1143823","0.0-5.0-0.75-0.75","78","t1h1smup","high"
