"round_number","sample_number","sampling_type","nSamples","mean","feedback","stimulus","stimulus_colour","rt","trial_type","trial_index","time_elapsed","internal_node_id","participant","randomID","condition"
"1","1","fixed","5","99","117","purple-183","purple","5725","sampling-task","6","306381","0.0-5.0-0.0-0.0","88","pyf4qhcd","low"
"1","2","fixed","5","99","97","purple-183","purple","3286","sampling-task","7","312196","0.0-5.0-0.1-0.1","88","pyf4qhcd","low"
"1","3","fixed","5","99","100","purple-183","purple","2094","sampling-task","8","321060","0.0-5.0-0.2-0.2","88","pyf4qhcd","low"
"1","4","fixed","5","99","134","purple-183","purple","1886","sampling-task","9","324724","0.0-5.0-0.3-0.3","88","pyf4qhcd","low"
"1","5","fixed","5","99","99","purple-183","purple","2566","sampling-task","10","330269","0.0-5.0-0.4-0.4","88","pyf4qhcd","low"
"2","1","free","220","30","20","blue-220","blue","3580","sampling-task","13","399326","0.0-5.0-0.5-0.5","88","pyf4qhcd","low"
"2","2","free","220","30","22","blue-220","blue","910","sampling-task","14","401590","0.0-5.0-0.6-0.6","88","pyf4qhcd","low"
"2","3","free","220","30","6","blue-220","blue","574","sampling-task","15","403390","0.0-5.0-0.7-0.7","88","pyf4qhcd","low"
"2","4","free","220","30","61","blue-220","blue","590","sampling-task","16","408621","0.0-5.0-0.8-0.8","88","pyf4qhcd","low"
"2","5","free","220","30","68","blue-220","blue","782","sampling-task","17","411054","0.0-5.0-0.9-0.9","88","pyf4qhcd","low"
"2","6","free","220","30","6","blue-220","blue","622","sampling-task","18","412885","0.0-5.0-0.10-0.10","88","pyf4qhcd","low"
"2","7","free","220","30","52","blue-220","blue","582","sampling-task","19","414901","0.0-5.0-0.11-0.11","88","pyf4qhcd","low"
"2","8","free","220","30","39","blue-220","blue","942","sampling-task","20","417886","0.0-5.0-0.12-0.12","88","pyf4qhcd","low"
"2","9","free","220","30","30","blue-220","blue","694","sampling-task","21","420517","0.0-5.0-0.13-0.13","88","pyf4qhcd","low"
"2","10","free","220","30","37","blue-220","blue","622","sampling-task","22","423429","0.0-5.0-0.14-0.14","88","pyf4qhcd","low"
"2","11","free","220","30","-41","blue-220","blue","590","sampling-task","23","425942","0.0-5.0-0.15-0.15","88","pyf4qhcd","low"
"2","12","free","220","30","40","blue-220","blue","1053","sampling-task","24","428325","0.0-5.0-0.16-0.16","88","pyf4qhcd","low"
"2","13","free","220","30","17","blue-220","blue","525","sampling-task","25","430109","0.0-5.0-0.17-0.17","88","pyf4qhcd","low"
"2","14","free","220","30","9","blue-220","blue","445","sampling-task","26","431877","0.0-5.0-0.18-0.18","88","pyf4qhcd","low"
"2","15","free","220","30","22","blue-220","blue","526","sampling-task","27","436189","0.0-5.0-0.19-0.19","88","pyf4qhcd","low"
"2","16","free","220","30","33","blue-220","blue","814","sampling-task","28","438205","0.0-5.0-0.20-0.20","88","pyf4qhcd","low"
"2","17","free","220","30","3","blue-220","blue","566","sampling-task","29","439717","0.0-5.0-0.21-0.21","88","pyf4qhcd","low"
"2","18","free","220","30","52","blue-220","blue","519","sampling-task","30","441181","0.0-5.0-0.22-0.22","88","pyf4qhcd","low"
"2","19","free","220","30","18","blue-220","blue","486","sampling-task","31","442853","0.0-5.0-0.23-0.23","88","pyf4qhcd","low"
"2","20","free","220","30","38","blue-220","blue","518","sampling-task","32","444357","0.0-5.0-0.24-0.24","88","pyf4qhcd","low"
"2","21","free","220","30","80","blue-220","blue","454","sampling-task","33","446173","0.0-5.0-0.25-0.25","88","pyf4qhcd","low"
"2","22","free","220","30","20","blue-220","blue","511","sampling-task","34","447725","0.0-5.0-0.26-0.26","88","pyf4qhcd","low"
"2","23","free","220","30","21","blue-220","blue","469","sampling-task","35","449541","0.0-5.0-0.27-0.27","88","pyf4qhcd","low"
"2","24","free","220","30","39","blue-220","blue","494","sampling-task","36","451461","0.0-5.0-0.28-0.28","88","pyf4qhcd","low"
"2","25","free","220","30","29","blue-220","blue","486","sampling-task","37","453173","0.0-5.0-0.29-0.29","88","pyf4qhcd","low"
"2","26","free","220","30","46","blue-220","blue","454","sampling-task","38","455261","0.0-5.0-0.30-0.30","88","pyf4qhcd","low"
"3","1","fixed","10","79","94","green-112","green","3233","sampling-task","41","489802","0.0-5.0-0.31-0.31","88","pyf4qhcd","low"
"3","2","fixed","10","79","89","green-112","green","742","sampling-task","42","491674","0.0-5.0-0.32-0.32","88","pyf4qhcd","low"
"3","3","fixed","10","79","79","green-112","green","799","sampling-task","43","493570","0.0-5.0-0.33-0.33","88","pyf4qhcd","low"
"3","4","fixed","10","79","61","green-112","green","583","sampling-task","44","495306","0.0-5.0-0.34-0.34","88","pyf4qhcd","low"
"3","5","fixed","10","79","55","green-112","green","765","sampling-task","45","497075","0.0-5.0-0.35-0.35","88","pyf4qhcd","low"
"3","6","fixed","10","79","84","green-112","green","678","sampling-task","46","499122","0.0-5.0-0.36-0.36","88","pyf4qhcd","low"
"3","7","fixed","10","79","68","green-112","green","766","sampling-task","47","500859","0.0-5.0-0.37-0.37","88","pyf4qhcd","low"
"3","8","fixed","10","79","101","green-112","green","565","sampling-task","48","502442","0.0-5.0-0.38-0.38","88","pyf4qhcd","low"
"3","9","fixed","10","79","88","green-112","green","582","sampling-task","49","505874","0.0-5.0-0.39-0.39","88","pyf4qhcd","low"
"3","10","fixed","10","79","92","green-112","green","454","sampling-task","50","507642","0.0-5.0-0.40-0.40","88","pyf4qhcd","low"
"4","1","free","220","115","98","orange-171","orange","2924","sampling-task","53","541706","0.0-5.0-0.41-0.41","88","pyf4qhcd","low"
"4","2","free","220","115","98","orange-171","orange","1309","sampling-task","54","544818","0.0-5.0-0.42-0.42","88","pyf4qhcd","low"
"4","3","free","220","115","113","orange-171","orange","551","sampling-task","55","547191","0.0-5.0-0.43-0.43","88","pyf4qhcd","low"
"4","4","free","220","115","133","orange-171","orange","582","sampling-task","56","549111","0.0-5.0-0.44-0.44","88","pyf4qhcd","low"
"4","5","free","220","115","113","orange-171","orange","518","sampling-task","57","550847","0.0-5.0-0.45-0.45","88","pyf4qhcd","low"
"4","6","free","220","115","130","orange-171","orange","566","sampling-task","58","552695","0.0-5.0-0.46-0.46","88","pyf4qhcd","low"
"4","7","free","220","115","135","orange-171","orange","574","sampling-task","59","554431","0.0-5.0-0.47-0.47","88","pyf4qhcd","low"
"4","8","free","220","115","86","orange-171","orange","542","sampling-task","60","556367","0.0-5.0-0.48-0.48","88","pyf4qhcd","low"
"4","9","free","220","115","147","orange-171","orange","502","sampling-task","61","557967","0.0-5.0-0.49-0.49","88","pyf4qhcd","low"
"4","10","free","220","115","87","orange-171","orange","566","sampling-task","62","559583","0.0-5.0-0.50-0.50","88","pyf4qhcd","low"
"4","11","free","220","115","101","orange-171","orange","566","sampling-task","63","561399","0.0-5.0-0.51-0.51","88","pyf4qhcd","low"
"4","12","free","220","115","146","orange-171","orange","534","sampling-task","64","564975","0.0-5.0-0.52-0.52","88","pyf4qhcd","low"
"4","13","free","220","115","140","orange-171","orange","477","sampling-task","65","566631","0.0-5.0-0.53-0.53","88","pyf4qhcd","low"
"4","14","free","220","115","103","orange-171","orange","542","sampling-task","66","568192","0.0-5.0-0.54-0.54","88","pyf4qhcd","low"
"4","15","free","220","115","96","orange-171","orange","470","sampling-task","67","569759","0.0-5.0-0.55-0.55","88","pyf4qhcd","low"
"4","16","free","220","115","105","orange-171","orange","430","sampling-task","68","571104","0.0-5.0-0.56-0.56","88","pyf4qhcd","low"
"4","17","free","220","115","153","orange-171","orange","374","sampling-task","69","572519","0.0-5.0-0.57-0.57","88","pyf4qhcd","low"
"4","18","free","220","115","141","orange-171","orange","462","sampling-task","70","574264","0.0-5.0-0.58-0.58","88","pyf4qhcd","low"
"4","19","free","220","115","130","orange-171","orange","382","sampling-task","71","577567","0.0-5.0-0.59-0.59","88","pyf4qhcd","low"
"5","1","fixed","20","54","69","yellow-216","yellow","7645","sampling-task","74","611452","0.0-5.0-0.60-0.60","88","pyf4qhcd","low"
"5","2","fixed","20","54","64","yellow-216","yellow","1678","sampling-task","75","614532","0.0-5.0-0.61-0.61","88","pyf4qhcd","low"
"5","3","fixed","20","54","68","yellow-216","yellow","1022","sampling-task","76","616845","0.0-5.0-0.62-0.62","88","pyf4qhcd","low"
"5","4","fixed","20","54","41","yellow-216","yellow","550","sampling-task","77","618581","0.0-5.0-0.63-0.63","88","pyf4qhcd","low"
"5","5","fixed","20","54","66","yellow-216","yellow","502","sampling-task","78","620117","0.0-5.0-0.64-0.64","88","pyf4qhcd","low"
"5","6","fixed","20","54","77","yellow-216","yellow","510","sampling-task","79","621725","0.0-5.0-0.65-0.65","88","pyf4qhcd","low"
"5","7","fixed","20","54","12","yellow-216","yellow","502","sampling-task","80","623340","0.0-5.0-0.66-0.66","88","pyf4qhcd","low"
"5","8","fixed","20","54","17","yellow-216","yellow","438","sampling-task","81","625300","0.0-5.0-0.67-0.67","88","pyf4qhcd","low"
"5","9","fixed","20","54","30","yellow-216","yellow","454","sampling-task","82","627437","0.0-5.0-0.68-0.68","88","pyf4qhcd","low"
"5","10","fixed","20","54","41","yellow-216","yellow","574","sampling-task","83","629004","0.0-5.0-0.69-0.69","88","pyf4qhcd","low"
"5","11","fixed","20","54","38","yellow-216","yellow","566","sampling-task","84","630692","0.0-5.0-0.70-0.70","88","pyf4qhcd","low"
"5","12","fixed","20","54","63","yellow-216","yellow","422","sampling-task","85","632333","0.0-5.0-0.71-0.71","88","pyf4qhcd","low"
"5","13","fixed","20","54","80","yellow-216","yellow","430","sampling-task","86","633724","0.0-5.0-0.72-0.72","88","pyf4qhcd","low"
"5","14","fixed","20","54","52","yellow-216","yellow","462","sampling-task","87","635325","0.0-5.0-0.73-0.73","88","pyf4qhcd","low"
"5","15","fixed","20","54","62","yellow-216","yellow","454","sampling-task","88","636780","0.0-5.0-0.74-0.74","88","pyf4qhcd","low"
"5","16","fixed","20","54","36","yellow-216","yellow","430","sampling-task","89","638429","0.0-5.0-0.75-0.75","88","pyf4qhcd","low"
"5","17","fixed","20","54","28","yellow-216","yellow","390","sampling-task","90","639749","0.0-5.0-0.76-0.76","88","pyf4qhcd","low"
"5","18","fixed","20","54","31","yellow-216","yellow","413","sampling-task","91","641101","0.0-5.0-0.77-0.77","88","pyf4qhcd","low"
"5","19","fixed","20","54","57","yellow-216","yellow","550","sampling-task","92","642605","0.0-5.0-0.78-0.78","88","pyf4qhcd","low"
"5","20","fixed","20","54","11","yellow-216","yellow","550","sampling-task","93","644085","0.0-5.0-0.79-0.79","88","pyf4qhcd","low"
"6","1","free","220","15","7","red-151","red","1901","sampling-task","96","676961","0.0-5.0-0.80-0.80","88","pyf4qhcd","low"
"6","2","free","220","15","16","red-151","red","574","sampling-task","97","678673","0.0-5.0-0.81-0.81","88","pyf4qhcd","low"
"6","3","free","220","15","23","red-151","red","382","sampling-task","98","680161","0.0-5.0-0.82-0.82","88","pyf4qhcd","low"
"6","4","free","220","15","26","red-151","red","518","sampling-task","99","681913","0.0-5.0-0.83-0.83","88","pyf4qhcd","low"
"6","5","free","220","15","7","red-151","red","438","sampling-task","100","683537","0.0-5.0-0.84-0.84","88","pyf4qhcd","low"
"6","6","free","220","15","4","red-151","red","438","sampling-task","101","685281","0.0-5.0-0.85-0.85","88","pyf4qhcd","low"
"6","7","free","220","15","29","red-151","red","590","sampling-task","102","687089","0.0-5.0-0.86-0.86","88","pyf4qhcd","low"
"6","8","free","220","15","-28","red-151","red","454","sampling-task","103","688673","0.0-5.0-0.87-0.87","88","pyf4qhcd","low"
"6","9","free","220","15","34","red-151","red","526","sampling-task","104","695497","0.0-5.0-0.88-0.88","88","pyf4qhcd","low"
"6","10","free","220","15","0","red-151","red","862","sampling-task","105","697745","0.0-5.0-0.89-0.89","88","pyf4qhcd","low"
"6","11","free","220","15","2","red-151","red","573","sampling-task","106","699378","0.0-5.0-0.90-0.90","88","pyf4qhcd","low"
"6","12","free","220","15","29","red-151","red","526","sampling-task","107","700913","0.0-5.0-0.91-0.91","88","pyf4qhcd","low"
"6","13","free","220","15","18","red-151","red","518","sampling-task","108","702425","0.0-5.0-0.92-0.92","88","pyf4qhcd","low"
"6","14","free","220","15","14","red-151","red","398","sampling-task","109","704049","0.0-5.0-0.93-0.93","88","pyf4qhcd","low"
"6","15","free","220","15","-3","red-151","red","590","sampling-task","110","705617","0.0-5.0-0.94-0.94","88","pyf4qhcd","low"
"6","16","free","220","15","2","red-151","red","414","sampling-task","111","707329","0.0-5.0-0.95-0.95","88","pyf4qhcd","low"
"6","17","free","220","15","29","red-151","red","454","sampling-task","112","708753","0.0-5.0-0.96-0.96","88","pyf4qhcd","low"
"6","18","free","220","15","4","red-151","red","454","sampling-task","113","710585","0.0-5.0-0.97-0.97","88","pyf4qhcd","low"
"6","19","free","220","15","31","red-151","red","422","sampling-task","114","711953","0.0-5.0-0.98-0.98","88","pyf4qhcd","low"
"6","20","free","220","15","28","red-151","red","398","sampling-task","115","713281","0.0-5.0-0.99-0.99","88","pyf4qhcd","low"
"6","21","free","220","15","-2","red-151","red","430","sampling-task","116","715025","0.0-5.0-0.100-0.100","88","pyf4qhcd","low"
"6","22","free","220","15","1","red-151","red","478","sampling-task","117","716465","0.0-5.0-0.101-0.101","88","pyf4qhcd","low"
"6","23","free","220","15","22","red-151","red","462","sampling-task","118","717874","0.0-5.0-0.102-0.102","88","pyf4qhcd","low"
"6","24","free","220","15","5","red-151","red","397","sampling-task","119","719889","0.0-5.0-0.103-0.103","88","pyf4qhcd","low"
