"round_number","sample_number","sampling_type","nSamples","mean","feedback","stimulus","stimulus_colour","rt","trial_type","trial_index","time_elapsed","internal_node_id","participant","randomID","condition"
"1","1","fixed","10","111","103","purple-33","purple","7254","sampling-task","6","306190","0.0-5.0-0.0-0.0","44","5jrh8k6p","low"
"1","2","fixed","10","111","127","purple-33","purple","4054","sampling-task","7","315206","0.0-5.0-0.1-0.1","44","5jrh8k6p","low"
"1","3","fixed","10","111","100","purple-33","purple","1030","sampling-task","8","331422","0.0-5.0-0.2-0.2","44","5jrh8k6p","low"
"1","4","fixed","10","111","105","purple-33","purple","7398","sampling-task","9","346661","0.0-5.0-0.3-0.3","44","5jrh8k6p","low"
"1","5","fixed","10","111","85","purple-33","purple","1653","sampling-task","10","349973","0.0-5.0-0.4-0.4","44","5jrh8k6p","low"
"1","6","fixed","10","111","65","purple-33","purple","607","sampling-task","11","351565","0.0-5.0-0.5-0.5","44","5jrh8k6p","low"
"1","7","fixed","10","111","131","purple-33","purple","559","sampling-task","12","353701","0.0-5.0-0.6-0.6","44","5jrh8k6p","low"
"1","8","fixed","10","111","97","purple-33","purple","590","sampling-task","13","355589","0.0-5.0-0.7-0.7","44","5jrh8k6p","low"
"1","9","fixed","10","111","129","purple-33","purple","622","sampling-task","14","357261","0.0-5.0-0.8-0.8","44","5jrh8k6p","low"
"1","10","fixed","10","111","99","purple-33","purple","582","sampling-task","15","359413","0.0-5.0-0.9-0.9","44","5jrh8k6p","low"
"2","1","free","220","34","48","orange-55","orange","4796","sampling-task","18","447341","0.0-5.0-0.10-0.10","44","5jrh8k6p","low"
"2","2","free","220","34","48","orange-55","orange","638","sampling-task","19","449173","0.0-5.0-0.11-0.11","44","5jrh8k6p","low"
"2","3","free","220","34","44","orange-55","orange","557","sampling-task","20","451109","0.0-5.0-0.12-0.12","44","5jrh8k6p","low"
"2","4","free","220","34","32","orange-55","orange","518","sampling-task","21","455021","0.0-5.0-0.13-0.13","44","5jrh8k6p","low"
"2","5","free","220","34","48","orange-55","orange","647","sampling-task","22","458013","0.0-5.0-0.14-0.14","44","5jrh8k6p","low"
"2","6","free","220","34","24","orange-55","orange","486","sampling-task","23","462221","0.0-5.0-0.15-0.15","44","5jrh8k6p","low"
"2","7","free","220","34","35","orange-55","orange","597","sampling-task","24","464165","0.0-5.0-0.16-0.16","44","5jrh8k6p","low"
"2","8","free","220","34","48","orange-55","orange","485","sampling-task","25","467708","0.0-5.0-0.17-0.17","44","5jrh8k6p","low"
"2","9","free","220","34","50","orange-55","orange","597","sampling-task","26","469852","0.0-5.0-0.18-0.18","44","5jrh8k6p","low"
"2","10","free","220","34","57","orange-55","orange","662","sampling-task","27","471644","0.0-5.0-0.19-0.19","44","5jrh8k6p","low"
"2","11","free","220","34","62","orange-55","orange","518","sampling-task","28","476732","0.0-5.0-0.20-0.20","44","5jrh8k6p","low"
"2","12","free","220","34","51","orange-55","orange","646","sampling-task","29","478556","0.0-5.0-0.21-0.21","44","5jrh8k6p","low"
"2","13","free","220","34","0","orange-55","orange","526","sampling-task","30","480508","0.0-5.0-0.22-0.22","44","5jrh8k6p","low"
"2","14","free","220","34","50","orange-55","orange","678","sampling-task","31","482148","0.0-5.0-0.23-0.23","44","5jrh8k6p","low"
"2","15","free","220","34","2","orange-55","orange","438","sampling-task","32","485748","0.0-5.0-0.24-0.24","44","5jrh8k6p","low"
"2","16","free","220","34","63","orange-55","orange","445","sampling-task","33","488572","0.0-5.0-0.25-0.25","44","5jrh8k6p","low"
"2","17","free","220","34","18","orange-55","orange","628","sampling-task","34","490228","0.0-5.0-0.26-0.26","44","5jrh8k6p","low"
"2","18","free","220","34","33","orange-55","orange","462","sampling-task","35","491588","0.0-5.0-0.27-0.27","44","5jrh8k6p","low"
"2","19","free","220","34","3","orange-55","orange","405","sampling-task","36","492876","0.0-5.0-0.28-0.28","44","5jrh8k6p","low"
"2","20","free","220","34","41","orange-55","orange","398","sampling-task","37","494188","0.0-5.0-0.29-0.29","44","5jrh8k6p","low"
"2","21","free","220","34","85","orange-55","orange","374","sampling-task","38","495916","0.0-5.0-0.30-0.30","44","5jrh8k6p","low"
"3","1","fixed","5","91","119","green-43","green","3301","sampling-task","41","555884","0.0-5.0-0.31-0.31","44","5jrh8k6p","low"
"3","2","fixed","5","91","90","green-43","green","470","sampling-task","42","557301","0.0-5.0-0.32-0.32","44","5jrh8k6p","low"
"3","3","fixed","5","91","85","green-43","green","494","sampling-task","43","558676","0.0-5.0-0.33-0.33","44","5jrh8k6p","low"
"3","4","fixed","5","91","89","green-43","green","423","sampling-task","44","560012","0.0-5.0-0.34-0.34","44","5jrh8k6p","low"
"3","5","fixed","5","91","70","green-43","green","534","sampling-task","45","561636","0.0-5.0-0.35-0.35","44","5jrh8k6p","low"
"4","1","free","220","55","85","red-201","red","2684","sampling-task","48","603980","0.0-5.0-0.36-0.36","44","5jrh8k6p","low"
"4","2","free","220","55","87","red-201","red","430","sampling-task","49","605396","0.0-5.0-0.37-0.37","44","5jrh8k6p","low"
"4","3","free","220","55","51","red-201","red","374","sampling-task","50","606676","0.0-5.0-0.38-0.38","44","5jrh8k6p","low"
"4","4","free","220","55","50","red-201","red","406","sampling-task","51","608148","0.0-5.0-0.39-0.39","44","5jrh8k6p","low"
"4","5","free","220","55","25","red-201","red","622","sampling-task","52","609996","0.0-5.0-0.40-0.40","44","5jrh8k6p","low"
"4","6","free","220","55","26","red-201","red","454","sampling-task","53","611380","0.0-5.0-0.41-0.41","44","5jrh8k6p","low"
"4","7","free","220","55","39","red-201","red","532","sampling-task","54","612868","0.0-5.0-0.42-0.42","44","5jrh8k6p","low"
"4","8","free","220","55","51","red-201","red","486","sampling-task","55","614268","0.0-5.0-0.43-0.43","44","5jrh8k6p","low"
"4","9","free","220","55","18","red-201","red","486","sampling-task","56","615636","0.0-5.0-0.44-0.44","44","5jrh8k6p","low"
"4","10","free","220","55","69","red-201","red","454","sampling-task","57","617828","0.0-5.0-0.45-0.45","44","5jrh8k6p","low"
"4","11","free","220","55","84","red-201","red","510","sampling-task","58","619876","0.0-5.0-0.46-0.46","44","5jrh8k6p","low"
"4","12","free","220","55","60","red-201","red","526","sampling-task","59","621467","0.0-5.0-0.47-0.47","44","5jrh8k6p","low"
"4","13","free","220","55","102","red-201","red","590","sampling-task","60","624620","0.0-5.0-0.48-0.48","44","5jrh8k6p","low"
"4","14","free","220","55","80","red-201","red","726","sampling-task","61","626387","0.0-5.0-0.49-0.49","44","5jrh8k6p","low"
"4","15","free","220","55","62","red-201","red","438","sampling-task","62","627724","0.0-5.0-0.50-0.50","44","5jrh8k6p","low"
"4","16","free","220","55","57","red-201","red","446","sampling-task","63","629124","0.0-5.0-0.51-0.51","44","5jrh8k6p","low"
"4","17","free","220","55","27","red-201","red","446","sampling-task","64","630884","0.0-5.0-0.52-0.52","44","5jrh8k6p","low"
"4","18","free","220","55","72","red-201","red","550","sampling-task","65","632396","0.0-5.0-0.53-0.53","44","5jrh8k6p","low"
"4","19","free","220","55","94","red-201","red","414","sampling-task","66","633692","0.0-5.0-0.54-0.54","44","5jrh8k6p","low"
"4","20","free","220","55","45","red-201","red","413","sampling-task","67","635084","0.0-5.0-0.55-0.55","44","5jrh8k6p","low"
"4","21","free","220","55","62","red-201","red","518","sampling-task","68","637404","0.0-5.0-0.56-0.56","44","5jrh8k6p","low"
"5","1","fixed","20","75","47","yellow-82","yellow","4213","sampling-task","71","672715","0.0-5.0-0.57-0.57","44","5jrh8k6p","low"
"5","2","fixed","20","75","99","yellow-82","yellow","606","sampling-task","72","674964","0.0-5.0-0.58-0.58","44","5jrh8k6p","low"
"5","3","fixed","20","75","52","yellow-82","yellow","542","sampling-task","73","693916","0.0-5.0-0.59-0.59","44","5jrh8k6p","low"
"5","4","fixed","20","75","72","yellow-82","yellow","1342","sampling-task","74","722371","0.0-5.0-0.60-0.60","44","5jrh8k6p","low"
"5","5","fixed","20","75","36","yellow-82","yellow","686","sampling-task","75","724979","0.0-5.0-0.61-0.61","44","5jrh8k6p","low"
"5","6","fixed","20","75","61","yellow-82","yellow","709","sampling-task","76","743051","0.0-5.0-0.62-0.62","44","5jrh8k6p","low"
"5","7","fixed","20","75","91","yellow-82","yellow","1070","sampling-task","77","760867","0.0-5.0-0.63-0.63","44","5jrh8k6p","low"
"5","8","fixed","20","75","100","yellow-82","yellow","814","sampling-task","78","763979","0.0-5.0-0.64-0.64","44","5jrh8k6p","low"
"5","9","fixed","20","75","78","yellow-82","yellow","551","sampling-task","79","777915","0.0-5.0-0.65-0.65","44","5jrh8k6p","low"
"5","10","fixed","20","75","74","yellow-82","yellow","630","sampling-task","80","780419","0.0-5.0-0.66-0.66","44","5jrh8k6p","low"
"5","11","fixed","20","75","84","yellow-82","yellow","462","sampling-task","81","781931","0.0-5.0-0.67-0.67","44","5jrh8k6p","low"
"5","12","fixed","20","75","83","yellow-82","yellow","405","sampling-task","82","785266","0.0-5.0-0.68-0.68","44","5jrh8k6p","low"
"5","13","fixed","20","75","99","yellow-82","yellow","398","sampling-task","83","786778","0.0-5.0-0.69-0.69","44","5jrh8k6p","low"
"5","14","fixed","20","75","82","yellow-82","yellow","534","sampling-task","84","789075","0.0-5.0-0.70-0.70","44","5jrh8k6p","low"
"5","15","fixed","20","75","62","yellow-82","yellow","430","sampling-task","85","790459","0.0-5.0-0.71-0.71","44","5jrh8k6p","low"
"5","16","fixed","20","75","68","yellow-82","yellow","374","sampling-task","86","791787","0.0-5.0-0.72-0.72","44","5jrh8k6p","low"
"5","17","fixed","20","75","79","yellow-82","yellow","398","sampling-task","87","793291","0.0-5.0-0.73-0.73","44","5jrh8k6p","low"
"5","18","fixed","20","75","101","yellow-82","yellow","382","sampling-task","88","796171","0.0-5.0-0.74-0.74","44","5jrh8k6p","low"
"5","19","fixed","20","75","91","yellow-82","yellow","605","sampling-task","89","798259","0.0-5.0-0.75-0.75","44","5jrh8k6p","low"
"5","20","fixed","20","75","117","yellow-82","yellow","1078","sampling-task","90","804427","0.0-5.0-0.76-0.76","44","5jrh8k6p","low"
"6","1","free","220","14","23","blue-125","blue","4205","sampling-task","93","835242","0.0-5.0-0.77-0.77","44","5jrh8k6p","low"
"6","2","free","220","14","21","blue-125","blue","390","sampling-task","94","836659","0.0-5.0-0.78-0.78","44","5jrh8k6p","low"
"6","3","free","220","14","-28","blue-125","blue","390","sampling-task","95","838266","0.0-5.0-0.79-0.79","44","5jrh8k6p","low"
"6","4","free","220","14","-5","blue-125","blue","606","sampling-task","96","840226","0.0-5.0-0.80-0.80","44","5jrh8k6p","low"
"6","5","free","220","14","18","blue-125","blue","518","sampling-task","97","841763","0.0-5.0-0.81-0.81","44","5jrh8k6p","low"
"6","6","free","220","14","27","blue-125","blue","446","sampling-task","98","843099","0.0-5.0-0.82-0.82","44","5jrh8k6p","low"
"6","7","free","220","14","25","blue-125","blue","421","sampling-task","99","844443","0.0-5.0-0.83-0.83","44","5jrh8k6p","low"
"6","8","free","220","14","-10","blue-125","blue","437","sampling-task","100","845755","0.0-5.0-0.84-0.84","44","5jrh8k6p","low"
"6","9","free","220","14","-20","blue-125","blue","405","sampling-task","101","847227","0.0-5.0-0.85-0.85","44","5jrh8k6p","low"
"6","10","free","220","14","31","blue-125","blue","334","sampling-task","102","848587","0.0-5.0-0.86-0.86","44","5jrh8k6p","low"
"6","11","free","220","14","-4","blue-125","blue","421","sampling-task","103","850291","0.0-5.0-0.87-0.87","44","5jrh8k6p","low"
"6","12","free","220","14","-23","blue-125","blue","638","sampling-task","104","852019","0.0-5.0-0.88-0.88","44","5jrh8k6p","low"
"6","13","free","220","14","44","blue-125","blue","486","sampling-task","105","853395","0.0-5.0-0.89-0.89","44","5jrh8k6p","low"
"6","14","free","220","14","-6","blue-125","blue","397","sampling-task","106","855467","0.0-5.0-0.90-0.90","44","5jrh8k6p","low"
