"round_number","sample_number","sampling_type","nSamples","mean","feedback","stimulus","stimulus_colour","rt","trial_type","trial_index","time_elapsed","internal_node_id","participant","randomID","condition"
"1","1","fixed","10","71","85","green-142","green","6517","sampling-task","6","227619","0.0-5.0-0.0-0.0","23","4abaxj6c","low"
"1","2","fixed","10","71","114","green-142","green","9190","sampling-task","7","240546","0.0-5.0-0.1-0.1","23","4abaxj6c","low"
"1","3","fixed","10","71","49","green-142","green","902","sampling-task","8","243611","0.0-5.0-0.2-0.2","23","4abaxj6c","low"
"1","4","fixed","10","71","73","green-142","green","1046","sampling-task","9","246530","0.0-5.0-0.3-0.3","23","4abaxj6c","low"
"1","5","fixed","10","71","79","green-142","green","862","sampling-task","10","248826","0.0-5.0-0.4-0.4","23","4abaxj6c","low"
"1","6","fixed","10","71","64","green-142","green","678","sampling-task","11","250955","0.0-5.0-0.5-0.5","23","4abaxj6c","low"
"1","7","fixed","10","71","83","green-142","green","582","sampling-task","12","262131","0.0-5.0-0.6-0.6","23","4abaxj6c","low"
"1","8","fixed","10","71","76","green-142","green","894","sampling-task","13","263995","0.0-5.0-0.7-0.7","23","4abaxj6c","low"
"1","9","fixed","10","71","88","green-142","green","1262","sampling-task","14","266466","0.0-5.0-0.8-0.8","23","4abaxj6c","low"
"1","10","fixed","10","71","72","green-142","green","926","sampling-task","15","268531","0.0-5.0-0.9-0.9","23","4abaxj6c","low"
"2","1","free","220","94","73","purple-182","purple","3980","sampling-task","18","304315","0.0-5.0-0.10-0.10","23","4abaxj6c","low"
"2","2","free","220","94","101","purple-182","purple","902","sampling-task","19","306243","0.0-5.0-0.11-0.11","23","4abaxj6c","low"
"2","3","free","220","94","113","purple-182","purple","470","sampling-task","20","307603","0.0-5.0-0.12-0.12","23","4abaxj6c","low"
"2","4","free","220","94","76","purple-182","purple","494","sampling-task","21","309019","0.0-5.0-0.13-0.13","23","4abaxj6c","low"
"2","5","free","220","94","127","purple-182","purple","550","sampling-task","22","310547","0.0-5.0-0.14-0.14","23","4abaxj6c","low"
"2","6","free","220","94","96","purple-182","purple","677","sampling-task","23","312251","0.0-5.0-0.15-0.15","23","4abaxj6c","low"
"2","7","free","220","94","102","purple-182","purple","494","sampling-task","24","313643","0.0-5.0-0.16-0.16","23","4abaxj6c","low"
"2","8","free","220","94","121","purple-182","purple","486","sampling-task","25","315691","0.0-5.0-0.17-0.17","23","4abaxj6c","low"
"2","9","free","220","94","143","purple-182","purple","372","sampling-task","26","316948","0.0-5.0-0.18-0.18","23","4abaxj6c","low"
"2","10","free","220","94","129","purple-182","purple","460","sampling-task","27","318299","0.0-5.0-0.19-0.19","23","4abaxj6c","low"
"2","11","free","220","94","110","purple-182","purple","518","sampling-task","28","319875","0.0-5.0-0.20-0.20","23","4abaxj6c","low"
"2","12","free","220","94","93","purple-182","purple","470","sampling-task","29","321307","0.0-5.0-0.21-0.21","23","4abaxj6c","low"
"2","13","free","220","94","107","purple-182","purple","789","sampling-task","30","322931","0.0-5.0-0.22-0.22","23","4abaxj6c","low"
"2","14","free","220","94","116","purple-182","purple","638","sampling-task","31","324483","0.0-5.0-0.23-0.23","23","4abaxj6c","low"
"2","15","free","220","94","79","purple-182","purple","478","sampling-task","32","325835","0.0-5.0-0.24-0.24","23","4abaxj6c","low"
"2","16","free","220","94","117","purple-182","purple","662","sampling-task","33","328691","0.0-5.0-0.25-0.25","23","4abaxj6c","low"
"3","1","fixed","20","35","18","orange-62","orange","2420","sampling-task","36","347850","0.0-5.0-0.26-0.26","23","4abaxj6c","low"
"3","2","fixed","20","35","5","orange-62","orange","677","sampling-task","37","350650","0.0-5.0-0.27-0.27","23","4abaxj6c","low"
"3","3","fixed","20","35","78","orange-62","orange","894","sampling-task","38","352826","0.0-5.0-0.28-0.28","23","4abaxj6c","low"
"3","4","fixed","20","35","25","orange-62","orange","646","sampling-task","39","354434","0.0-5.0-0.29-0.29","23","4abaxj6c","low"
"3","5","fixed","20","35","11","orange-62","orange","486","sampling-task","40","355826","0.0-5.0-0.30-0.30","23","4abaxj6c","low"
"3","6","fixed","20","35","50","orange-62","orange","557","sampling-task","41","357410","0.0-5.0-0.31-0.31","23","4abaxj6c","low"
"3","7","fixed","20","35","60","orange-62","orange","1022","sampling-task","42","359434","0.0-5.0-0.32-0.32","23","4abaxj6c","low"
"3","8","fixed","20","35","5","orange-62","orange","829","sampling-task","43","361410","0.0-5.0-0.33-0.33","23","4abaxj6c","low"
"3","9","fixed","20","35","32","orange-62","orange","758","sampling-task","44","363106","0.0-5.0-0.34-0.34","23","4abaxj6c","low"
"3","10","fixed","20","35","52","orange-62","orange","781","sampling-task","45","364890","0.0-5.0-0.35-0.35","23","4abaxj6c","low"
"3","11","fixed","20","35","19","orange-62","orange","878","sampling-task","46","366634","0.0-5.0-0.36-0.36","23","4abaxj6c","low"
"3","12","fixed","20","35","58","orange-62","orange","1950","sampling-task","47","369530","0.0-5.0-0.37-0.37","23","4abaxj6c","low"
"3","13","fixed","20","35","61","orange-62","orange","414","sampling-task","48","370947","0.0-5.0-0.38-0.38","23","4abaxj6c","low"
"3","14","fixed","20","35","23","orange-62","orange","677","sampling-task","49","372618","0.0-5.0-0.39-0.39","23","4abaxj6c","low"
"3","15","fixed","20","35","20","orange-62","orange","606","sampling-task","50","374066","0.0-5.0-0.40-0.40","23","4abaxj6c","low"
"3","16","fixed","20","35","19","orange-62","orange","654","sampling-task","51","375794","0.0-5.0-0.41-0.41","23","4abaxj6c","low"
"3","17","fixed","20","35","9","orange-62","orange","502","sampling-task","52","377258","0.0-5.0-0.42-0.42","23","4abaxj6c","low"
"3","18","fixed","20","35","62","orange-62","orange","446","sampling-task","53","378586","0.0-5.0-0.43-0.43","23","4abaxj6c","low"
"3","19","fixed","20","35","45","orange-62","orange","558","sampling-task","54","380234","0.0-5.0-0.44-0.44","23","4abaxj6c","low"
"3","20","fixed","20","35","34","orange-62","orange","1158","sampling-task","55","382538","0.0-5.0-0.45-0.45","23","4abaxj6c","low"
"4","1","free","220","114","144","red-24","red","2644","sampling-task","58","405706","0.0-5.0-0.46-0.46","23","4abaxj6c","low"
"4","2","free","220","114","96","red-24","red","310","sampling-task","59","406842","0.0-5.0-0.47-0.47","23","4abaxj6c","low"
"4","3","free","220","114","108","red-24","red","693","sampling-task","60","409162","0.0-5.0-0.48-0.48","23","4abaxj6c","low"
"4","4","free","220","114","127","red-24","red","470","sampling-task","61","410625","0.0-5.0-0.49-0.49","23","4abaxj6c","low"
"4","5","free","220","114","97","red-24","red","638","sampling-task","62","412322","0.0-5.0-0.50-0.50","23","4abaxj6c","low"
"4","6","free","220","114","119","red-24","red","326","sampling-task","63","413506","0.0-5.0-0.51-0.51","23","4abaxj6c","low"
"4","7","free","220","114","96","red-24","red","517","sampling-task","64","414865","0.0-5.0-0.52-0.52","23","4abaxj6c","low"
"4","8","free","220","114","91","red-24","red","542","sampling-task","65","416265","0.0-5.0-0.53-0.53","23","4abaxj6c","low"
"4","9","free","220","114","104","red-24","red","621","sampling-task","66","417825","0.0-5.0-0.54-0.54","23","4abaxj6c","low"
"4","10","free","220","114","75","red-24","red","478","sampling-task","67","419266","0.0-5.0-0.55-0.55","23","4abaxj6c","low"
"4","11","free","220","114","139","red-24","red","350","sampling-task","68","420473","0.0-5.0-0.56-0.56","23","4abaxj6c","low"
"4","12","free","220","114","91","red-24","red","606","sampling-task","69","421930","0.0-5.0-0.57-0.57","23","4abaxj6c","low"
"4","13","free","220","114","79","red-24","red","430","sampling-task","70","423498","0.0-5.0-0.58-0.58","23","4abaxj6c","low"
"4","14","free","220","114","120","red-24","red","326","sampling-task","71","424729","0.0-5.0-0.59-0.59","23","4abaxj6c","low"
"4","15","free","220","114","140","red-24","red","478","sampling-task","72","426041","0.0-5.0-0.60-0.60","23","4abaxj6c","low"
"4","16","free","220","114","122","red-24","red","470","sampling-task","73","427377","0.0-5.0-0.61-0.61","23","4abaxj6c","low"
"4","17","free","220","114","139","red-24","red","438","sampling-task","74","428834","0.0-5.0-0.62-0.62","23","4abaxj6c","low"
"4","18","free","220","114","116","red-24","red","349","sampling-task","75","430025","0.0-5.0-0.63-0.63","23","4abaxj6c","low"
"4","19","free","220","114","131","red-24","red","334","sampling-task","76","431186","0.0-5.0-0.64-0.64","23","4abaxj6c","low"
"4","20","free","220","114","102","red-24","red","558","sampling-task","77","432826","0.0-5.0-0.65-0.65","23","4abaxj6c","low"
"4","21","free","220","114","134","red-24","red","350","sampling-task","78","434154","0.0-5.0-0.66-0.66","23","4abaxj6c","low"
"4","22","free","220","114","113","red-24","red","454","sampling-task","79","435514","0.0-5.0-0.67-0.67","23","4abaxj6c","low"
"4","23","free","220","114","142","red-24","red","573","sampling-task","80","436970","0.0-5.0-0.68-0.68","23","4abaxj6c","low"
"4","24","free","220","114","106","red-24","red","326","sampling-task","81","438290","0.0-5.0-0.69-0.69","23","4abaxj6c","low"
"4","25","free","220","114","142","red-24","red","526","sampling-task","82","439697","0.0-5.0-0.70-0.70","23","4abaxj6c","low"
"4","26","free","220","114","133","red-24","red","302","sampling-task","83","440858","0.0-5.0-0.71-0.71","23","4abaxj6c","low"
"4","27","free","220","114","127","red-24","red","486","sampling-task","84","442210","0.0-5.0-0.72-0.72","23","4abaxj6c","low"
"4","28","free","220","114","124","red-24","red","318","sampling-task","85","443369","0.0-5.0-0.73-0.73","23","4abaxj6c","low"
"4","29","free","220","114","96","red-24","red","366","sampling-task","86","444842","0.0-5.0-0.74-0.74","23","4abaxj6c","low"
"4","30","free","220","114","118","red-24","red","317","sampling-task","87","446009","0.0-5.0-0.75-0.75","23","4abaxj6c","low"
"4","31","free","220","114","66","red-24","red","438","sampling-task","88","447306","0.0-5.0-0.76-0.76","23","4abaxj6c","low"
"4","32","free","220","114","129","red-24","red","398","sampling-task","89","448625","0.0-5.0-0.77-0.77","23","4abaxj6c","low"
"4","33","free","220","114","99","red-24","red","829","sampling-task","90","450442","0.0-5.0-0.78-0.78","23","4abaxj6c","low"
"4","34","free","220","114","80","red-24","red","349","sampling-task","91","451834","0.0-5.0-0.79-0.79","23","4abaxj6c","low"
"4","35","free","220","114","119","red-24","red","365","sampling-task","92","453210","0.0-5.0-0.80-0.80","23","4abaxj6c","low"
"4","36","free","220","114","94","red-24","red","334","sampling-task","93","454417","0.0-5.0-0.81-0.81","23","4abaxj6c","low"
"4","37","free","220","114","76","red-24","red","366","sampling-task","94","455642","0.0-5.0-0.82-0.82","23","4abaxj6c","low"
"4","38","free","220","114","115","red-24","red","318","sampling-task","95","456922","0.0-5.0-0.83-0.83","23","4abaxj6c","low"
"4","39","free","220","114","134","red-24","red","390","sampling-task","96","458457","0.0-5.0-0.84-0.84","23","4abaxj6c","low"
"5","1","fixed","5","18","15","blue-1","blue","1533","sampling-task","99","476553","0.0-5.0-0.85-0.85","23","4abaxj6c","low"
"5","2","fixed","5","18","37","blue-1","blue","406","sampling-task","100","477817","0.0-5.0-0.86-0.86","23","4abaxj6c","low"
"5","3","fixed","5","18","76","blue-1","blue","494","sampling-task","101","479337","0.0-5.0-0.87-0.87","23","4abaxj6c","low"
"5","4","fixed","5","18","-4","blue-1","blue","518","sampling-task","102","480881","0.0-5.0-0.88-0.88","23","4abaxj6c","low"
"5","5","fixed","5","18","41","blue-1","blue","478","sampling-task","103","486793","0.0-5.0-0.89-0.89","23","4abaxj6c","low"
"6","1","free","220","57","48","yellow-58","yellow","58908","sampling-task","106","725559","0.0-5.0-0.90-0.90","23","4abaxj6c","low"
"6","2","free","220","57","78","yellow-58","yellow","342","sampling-task","107","726911","0.0-5.0-0.91-0.91","23","4abaxj6c","low"
"6","3","free","220","57","50","yellow-58","yellow","398","sampling-task","108","728432","0.0-5.0-0.92-0.92","23","4abaxj6c","low"
"6","4","free","220","57","35","yellow-58","yellow","310","sampling-task","109","729583","0.0-5.0-0.93-0.93","23","4abaxj6c","low"
"6","5","free","220","57","63","yellow-58","yellow","310","sampling-task","110","730767","0.0-5.0-0.94-0.94","23","4abaxj6c","low"
"6","6","free","220","57","75","yellow-58","yellow","590","sampling-task","111","732319","0.0-5.0-0.95-0.95","23","4abaxj6c","low"
"6","7","free","220","57","65","yellow-58","yellow","358","sampling-task","112","733479","0.0-5.0-0.96-0.96","23","4abaxj6c","low"
"6","8","free","220","57","54","yellow-58","yellow","446","sampling-task","113","734839","0.0-5.0-0.97-0.97","23","4abaxj6c","low"
"6","9","free","220","57","39","yellow-58","yellow","310","sampling-task","114","736103","0.0-5.0-0.98-0.98","23","4abaxj6c","low"
"6","10","free","220","57","35","yellow-58","yellow","638","sampling-task","115","737847","0.0-5.0-0.99-0.99","23","4abaxj6c","low"
"6","11","free","220","57","72","yellow-58","yellow","342","sampling-task","116","739015","0.0-5.0-0.100-0.100","23","4abaxj6c","low"
"6","12","free","220","57","23","yellow-58","yellow","566","sampling-task","117","740639","0.0-5.0-0.101-0.101","23","4abaxj6c","low"
"6","13","free","220","57","36","yellow-58","yellow","477","sampling-task","118","742000","0.0-5.0-0.102-0.102","23","4abaxj6c","low"
"6","14","free","220","57","64","yellow-58","yellow","326","sampling-task","119","743151","0.0-5.0-0.103-0.103","23","4abaxj6c","low"
"6","15","free","220","57","41","yellow-58","yellow","470","sampling-task","120","744511","0.0-5.0-0.104-0.104","23","4abaxj6c","low"
"6","16","free","220","57","82","yellow-58","yellow","501","sampling-task","121","745847","0.0-5.0-0.105-0.105","23","4abaxj6c","low"
"6","17","free","220","57","14","yellow-58","yellow","446","sampling-task","122","747320","0.0-5.0-0.106-0.106","23","4abaxj6c","low"
"6","18","free","220","57","77","yellow-58","yellow","486","sampling-task","123","833630","0.0-5.0-0.107-0.107","23","4abaxj6c","low"
"6","19","free","220","57","35","yellow-58","yellow","518","sampling-task","124","835015","0.0-5.0-0.108-0.108","23","4abaxj6c","low"
"6","20","free","220","57","73","yellow-58","yellow","293","sampling-task","125","836302","0.0-5.0-0.109-0.109","23","4abaxj6c","low"
"6","21","free","220","57","29","yellow-58","yellow","717","sampling-task","126","837911","0.0-5.0-0.110-0.110","23","4abaxj6c","low"
