"round_number","sample_number","sampling_type","nSamples","mean","feedback","stimulus","stimulus_colour","rt","trial_type","trial_index","time_elapsed","internal_node_id","participant","randomID","condition"
"1","1","fixed","20","94","73","red-70","red","4126","sampling-task","6","211602","0.0-5.0-0.0-0.0","96","7o2xfdkn","low"
"1","2","fixed","20","94","131","red-70","red","3318","sampling-task","7","218177","0.0-5.0-0.1-0.1","96","7o2xfdkn","low"
"1","3","fixed","20","94","110","red-70","red","1910","sampling-task","8","221553","0.0-5.0-0.2-0.2","96","7o2xfdkn","low"
"1","4","fixed","20","94","88","red-70","red","718","sampling-task","9","223513","0.0-5.0-0.3-0.3","96","7o2xfdkn","low"
"1","5","fixed","20","94","96","red-70","red","687","sampling-task","10","225353","0.0-5.0-0.4-0.4","96","7o2xfdkn","low"
"1","6","fixed","20","94","87","red-70","red","663","sampling-task","11","226929","0.0-5.0-0.5-0.5","96","7o2xfdkn","low"
"1","7","fixed","20","94","87","red-70","red","975","sampling-task","12","228817","0.0-5.0-0.6-0.6","96","7o2xfdkn","low"
"1","8","fixed","20","94","80","red-70","red","607","sampling-task","13","230514","0.0-5.0-0.7-0.7","96","7o2xfdkn","low"
"1","9","fixed","20","94","56","red-70","red","518","sampling-task","14","232441","0.0-5.0-0.8-0.8","96","7o2xfdkn","low"
"1","10","fixed","20","94","117","red-70","red","743","sampling-task","15","234633","0.0-5.0-0.9-0.9","96","7o2xfdkn","low"
"1","11","fixed","20","94","87","red-70","red","493","sampling-task","16","236161","0.0-5.0-0.10-0.10","96","7o2xfdkn","low"
"1","12","fixed","20","94","66","red-70","red","478","sampling-task","17","238161","0.0-5.0-0.11-0.11","96","7o2xfdkn","low"
"1","13","fixed","20","94","91","red-70","red","566","sampling-task","18","240057","0.0-5.0-0.12-0.12","96","7o2xfdkn","low"
"1","14","fixed","20","94","126","red-70","red","662","sampling-task","19","241873","0.0-5.0-0.13-0.13","96","7o2xfdkn","low"
"1","15","fixed","20","94","92","red-70","red","494","sampling-task","20","243513","0.0-5.0-0.14-0.14","96","7o2xfdkn","low"
"1","16","fixed","20","94","134","red-70","red","494","sampling-task","21","245241","0.0-5.0-0.15-0.15","96","7o2xfdkn","low"
"1","17","fixed","20","94","111","red-70","red","462","sampling-task","22","246609","0.0-5.0-0.16-0.16","96","7o2xfdkn","low"
"1","18","fixed","20","94","77","red-70","red","558","sampling-task","23","248121","0.0-5.0-0.17-0.17","96","7o2xfdkn","low"
"1","19","fixed","20","94","113","red-70","red","542","sampling-task","24","249897","0.0-5.0-0.18-0.18","96","7o2xfdkn","low"
"1","20","fixed","20","94","97","red-70","red","742","sampling-task","25","251697","0.0-5.0-0.19-0.19","96","7o2xfdkn","low"
"2","1","free","220","38","5","yellow-105","yellow","2421","sampling-task","28","285913","0.0-5.0-0.20-0.20","96","7o2xfdkn","low"
"2","2","free","220","38","57","yellow-105","yellow","454","sampling-task","29","287257","0.0-5.0-0.21-0.21","96","7o2xfdkn","low"
"2","3","free","220","38","42","yellow-105","yellow","398","sampling-task","30","288561","0.0-5.0-0.22-0.22","96","7o2xfdkn","low"
"2","4","free","220","38","55","yellow-105","yellow","382","sampling-task","31","289889","0.0-5.0-0.23-0.23","96","7o2xfdkn","low"
"2","5","free","220","38","9","yellow-105","yellow","350","sampling-task","32","291225","0.0-5.0-0.24-0.24","96","7o2xfdkn","low"
"2","6","free","220","38","64","yellow-105","yellow","390","sampling-task","33","292601","0.0-5.0-0.25-0.25","96","7o2xfdkn","low"
"2","7","free","220","38","21","yellow-105","yellow","390","sampling-task","34","293985","0.0-5.0-0.26-0.26","96","7o2xfdkn","low"
"2","8","free","220","38","46","yellow-105","yellow","390","sampling-task","35","295272","0.0-5.0-0.27-0.27","96","7o2xfdkn","low"
"2","9","free","220","38","38","yellow-105","yellow","358","sampling-task","36","296528","0.0-5.0-0.28-0.28","96","7o2xfdkn","low"
"2","10","free","220","38","41","yellow-105","yellow","366","sampling-task","37","297840","0.0-5.0-0.29-0.29","96","7o2xfdkn","low"
"2","11","free","220","38","30","yellow-105","yellow","446","sampling-task","38","299128","0.0-5.0-0.30-0.30","96","7o2xfdkn","low"
"2","12","free","220","38","23","yellow-105","yellow","478","sampling-task","39","300464","0.0-5.0-0.31-0.31","96","7o2xfdkn","low"
"2","13","free","220","38","10","yellow-105","yellow","934","sampling-task","40","302384","0.0-5.0-0.32-0.32","96","7o2xfdkn","low"
"2","14","free","220","38","49","yellow-105","yellow","934","sampling-task","41","304696","0.0-5.0-0.33-0.33","96","7o2xfdkn","low"
"3","1","fixed","10","75","70","green-55","green","1748","sampling-task","44","325336","0.0-5.0-0.34-0.34","96","7o2xfdkn","low"
"3","2","fixed","10","75","47","green-55","green","606","sampling-task","45","326791","0.0-5.0-0.35-0.35","96","7o2xfdkn","low"
"3","3","fixed","10","75","72","green-55","green","414","sampling-task","46","328023","0.0-5.0-0.36-0.36","96","7o2xfdkn","low"
"3","4","fixed","10","75","95","green-55","green","390","sampling-task","47","329263","0.0-5.0-0.37-0.37","96","7o2xfdkn","low"
"3","5","fixed","10","75","88","green-55","green","397","sampling-task","48","330792","0.0-5.0-0.38-0.38","96","7o2xfdkn","low"
"3","6","fixed","10","75","110","green-55","green","718","sampling-task","49","332432","0.0-5.0-0.39-0.39","96","7o2xfdkn","low"
"3","7","fixed","10","75","58","green-55","green","438","sampling-task","50","333864","0.0-5.0-0.40-0.40","96","7o2xfdkn","low"
"3","8","fixed","10","75","68","green-55","green","406","sampling-task","51","335280","0.0-5.0-0.41-0.41","96","7o2xfdkn","low"
"3","9","fixed","10","75","57","green-55","green","382","sampling-task","52","336487","0.0-5.0-0.42-0.42","96","7o2xfdkn","low"
"3","10","fixed","10","75","86","green-55","green","414","sampling-task","53","337719","0.0-5.0-0.43-0.43","96","7o2xfdkn","low"
"4","1","free","220","57","66","blue-168","blue","1069","sampling-task","56","358175","0.0-5.0-0.44-0.44","96","7o2xfdkn","low"
"4","2","free","220","57","37","blue-168","blue","406","sampling-task","57","359407","0.0-5.0-0.45-0.45","96","7o2xfdkn","low"
"4","3","free","220","57","39","blue-168","blue","359","sampling-task","58","360583","0.0-5.0-0.46-0.46","96","7o2xfdkn","low"
"4","4","free","220","57","56","blue-168","blue","351","sampling-task","59","361743","0.0-5.0-0.47-0.47","96","7o2xfdkn","low"
"4","5","free","220","57","33","blue-168","blue","335","sampling-task","60","362999","0.0-5.0-0.48-0.48","96","7o2xfdkn","low"
"4","6","free","220","57","35","blue-168","blue","319","sampling-task","61","364127","0.0-5.0-0.49-0.49","96","7o2xfdkn","low"
"4","7","free","220","57","45","blue-168","blue","351","sampling-task","62","365511","0.0-5.0-0.50-0.50","96","7o2xfdkn","low"
"4","8","free","220","57","35","blue-168","blue","382","sampling-task","63","366791","0.0-5.0-0.51-0.51","96","7o2xfdkn","low"
"4","9","free","220","57","29","blue-168","blue","422","sampling-task","64","368135","0.0-5.0-0.52-0.52","96","7o2xfdkn","low"
"4","10","free","220","57","56","blue-168","blue","351","sampling-task","65","369711","0.0-5.0-0.53-0.53","96","7o2xfdkn","low"
"4","11","free","220","57","92","blue-168","blue","598","sampling-task","66","371415","0.0-5.0-0.54-0.54","96","7o2xfdkn","low"
"4","12","free","220","57","102","blue-168","blue","438","sampling-task","67","372887","0.0-5.0-0.55-0.55","96","7o2xfdkn","low"
"4","13","free","220","57","69","blue-168","blue","374","sampling-task","68","374423","0.0-5.0-0.56-0.56","96","7o2xfdkn","low"
"4","14","free","220","57","58","blue-168","blue","463","sampling-task","69","375727","0.0-5.0-0.57-0.57","96","7o2xfdkn","low"
"4","15","free","220","57","70","blue-168","blue","366","sampling-task","70","377095","0.0-5.0-0.58-0.58","96","7o2xfdkn","low"
"4","16","free","220","57","58","blue-168","blue","935","sampling-task","71","379143","0.0-5.0-0.59-0.59","96","7o2xfdkn","low"
"5","1","fixed","5","110","109","orange-36","orange","932","sampling-task","74","396495","0.0-5.0-0.60-0.60","96","7o2xfdkn","low"
"5","2","fixed","5","110","127","orange-36","orange","431","sampling-task","75","397743","0.0-5.0-0.61-0.61","96","7o2xfdkn","low"
"5","3","fixed","5","110","100","orange-36","orange","367","sampling-task","76","398991","0.0-5.0-0.62-0.62","96","7o2xfdkn","low"
"5","4","fixed","5","110","125","orange-36","orange","383","sampling-task","77","400183","0.0-5.0-0.63-0.63","96","7o2xfdkn","low"
"5","5","fixed","5","110","97","orange-36","orange","383","sampling-task","78","401415","0.0-5.0-0.64-0.64","96","7o2xfdkn","low"
"6","1","free","220","13","23","purple-84","purple","1573","sampling-task","81","420198","0.0-5.0-0.65-0.65","96","7o2xfdkn","low"
"6","2","free","220","13","-14","purple-84","purple","366","sampling-task","82","421534","0.0-5.0-0.66-0.66","96","7o2xfdkn","low"
"6","3","free","220","13","11","purple-84","purple","383","sampling-task","83","422934","0.0-5.0-0.67-0.67","96","7o2xfdkn","low"
"6","4","free","220","13","41","purple-84","purple","326","sampling-task","84","424158","0.0-5.0-0.68-0.68","96","7o2xfdkn","low"
"6","5","free","220","13","64","purple-84","purple","374","sampling-task","85","425870","0.0-5.0-0.69-0.69","96","7o2xfdkn","low"
"6","6","free","220","13","7","purple-84","purple","438","sampling-task","86","427142","0.0-5.0-0.70-0.70","96","7o2xfdkn","low"
"6","7","free","220","13","29","purple-84","purple","358","sampling-task","87","428326","0.0-5.0-0.71-0.71","96","7o2xfdkn","low"
"6","8","free","220","13","13","purple-84","purple","310","sampling-task","88","429470","0.0-5.0-0.72-0.72","96","7o2xfdkn","low"
"6","9","free","220","13","-2","purple-84","purple","335","sampling-task","89","430654","0.0-5.0-0.73-0.73","96","7o2xfdkn","low"
"6","10","free","220","13","40","purple-84","purple","334","sampling-task","90","431846","0.0-5.0-0.74-0.74","96","7o2xfdkn","low"
"6","11","free","220","13","21","purple-84","purple","366","sampling-task","91","433039","0.0-5.0-0.75-0.75","96","7o2xfdkn","low"
"6","12","free","220","13","46","purple-84","purple","318","sampling-task","92","434174","0.0-5.0-0.76-0.76","96","7o2xfdkn","low"
"6","13","free","220","13","-16","purple-84","purple","350","sampling-task","93","435326","0.0-5.0-0.77-0.77","96","7o2xfdkn","low"
"6","14","free","220","13","18","purple-84","purple","325","sampling-task","94","436830","0.0-5.0-0.78-0.78","96","7o2xfdkn","low"
"6","15","free","220","13","-13","purple-84","purple","318","sampling-task","95","438118","0.0-5.0-0.79-0.79","96","7o2xfdkn","low"
"6","16","free","220","13","41","purple-84","purple","814","sampling-task","96","439966","0.0-5.0-0.80-0.80","96","7o2xfdkn","low"
