"round_number","sample_number","sampling_type","nSamples","mean","feedback","stimulus","stimulus_colour","rt","trial_type","trial_index","time_elapsed","internal_node_id","participant","randomID","condition"
"1","1","fixed","20","12","-11","blue-186","blue","9992","sampling-task","6","377206","0.0-5.0-0.0-0.0","100","pokq8zyb","high"
"1","2","fixed","20","12","19","blue-120","blue","2334","sampling-task","7","382357","0.0-5.0-0.1-0.1","100","pokq8zyb","high"
"1","3","fixed","20","12","44","blue-101","blue","3358","sampling-task","8","387382","0.0-5.0-0.2-0.2","100","pokq8zyb","high"
"1","4","fixed","20","12","3","blue-155","blue","1094","sampling-task","9","391477","0.0-5.0-0.3-0.3","100","pokq8zyb","high"
"1","5","fixed","20","12","27","blue-159","blue","902","sampling-task","10","393758","0.0-5.0-0.4-0.4","100","pokq8zyb","high"
"1","6","fixed","20","12","-21","blue-13","blue","943","sampling-task","11","395918","0.0-5.0-0.5-0.5","100","pokq8zyb","high"
"1","7","fixed","20","12","-5","blue-143","blue","607","sampling-task","12","397773","0.0-5.0-0.6-0.6","100","pokq8zyb","high"
"1","8","fixed","20","12","13","blue-4","blue","823","sampling-task","13","400406","0.0-5.0-0.7-0.7","100","pokq8zyb","high"
"1","9","fixed","20","12","31","blue-138","blue","998","sampling-task","14","402742","0.0-5.0-0.8-0.8","100","pokq8zyb","high"
"1","10","fixed","20","12","36","blue-57","blue","878","sampling-task","15","406254","0.0-5.0-0.9-0.9","100","pokq8zyb","high"
"1","11","fixed","20","12","0","blue-142","blue","766","sampling-task","16","409358","0.0-5.0-0.10-0.10","100","pokq8zyb","high"
"1","12","fixed","20","12","25","blue-213","blue","870","sampling-task","17","411718","0.0-5.0-0.11-0.11","100","pokq8zyb","high"
"1","13","fixed","20","12","3","blue-184","blue","1022","sampling-task","18","414734","0.0-5.0-0.12-0.12","100","pokq8zyb","high"
"1","14","fixed","20","12","8","blue-164","blue","1390","sampling-task","19","417277","0.0-5.0-0.13-0.13","100","pokq8zyb","high"
"1","15","fixed","20","12","30","blue-27","blue","1175","sampling-task","20","419653","0.0-5.0-0.14-0.14","100","pokq8zyb","high"
"1","16","fixed","20","12","-6","blue-219","blue","902","sampling-task","21","421774","0.0-5.0-0.15-0.15","100","pokq8zyb","high"
"1","17","fixed","20","12","18","blue-11","blue","910","sampling-task","22","423614","0.0-5.0-0.16-0.16","100","pokq8zyb","high"
"1","18","fixed","20","12","8","blue-8","blue","766","sampling-task","23","425294","0.0-5.0-0.17-0.17","100","pokq8zyb","high"
"1","19","fixed","20","12","6","blue-138","blue","1518","sampling-task","24","428205","0.0-5.0-0.18-0.18","100","pokq8zyb","high"
"1","20","fixed","20","12","30","blue-110","blue","887","sampling-task","25","431782","0.0-5.0-0.19-0.19","100","pokq8zyb","high"
"2","1","free","220","79","83","purple-209","purple","3573","sampling-task","28","484400","0.0-5.0-0.20-0.20","100","pokq8zyb","high"
"2","2","free","220","79","37","purple-123","purple","1375","sampling-task","29","487312","0.0-5.0-0.21-0.21","100","pokq8zyb","high"
"2","3","free","220","79","88","purple-30","purple","647","sampling-task","30","489232","0.0-5.0-0.22-0.22","100","pokq8zyb","high"
"2","4","free","220","79","98","purple-18","purple","534","sampling-task","31","491304","0.0-5.0-0.23-0.23","100","pokq8zyb","high"
"2","5","free","220","79","73","purple-72","purple","599","sampling-task","32","493144","0.0-5.0-0.24-0.24","100","pokq8zyb","high"
"2","6","free","220","79","61","purple-41","purple","878","sampling-task","33","495288","0.0-5.0-0.25-0.25","100","pokq8zyb","high"
"2","7","free","220","79","107","purple-184","purple","471","sampling-task","34","498452","0.0-5.0-0.26-0.26","100","pokq8zyb","high"
"2","8","free","220","79","93","purple-195","purple","414","sampling-task","35","500508","0.0-5.0-0.27-0.27","100","pokq8zyb","high"
"2","9","free","220","79","67","purple-101","purple","390","sampling-task","36","502196","0.0-5.0-0.28-0.28","100","pokq8zyb","high"
"2","10","free","220","79","63","purple-36","purple","526","sampling-task","37","504132","0.0-5.0-0.29-0.29","100","pokq8zyb","high"
"2","11","free","220","79","101","purple-94","purple","630","sampling-task","38","506964","0.0-5.0-0.30-0.30","100","pokq8zyb","high"
"2","12","free","220","79","77","purple-22","purple","446","sampling-task","39","508692","0.0-5.0-0.31-0.31","100","pokq8zyb","high"
"2","13","free","220","79","71","purple-11","purple","694","sampling-task","40","510588","0.0-5.0-0.32-0.32","100","pokq8zyb","high"
"2","14","free","220","79","24","purple-86","purple","686","sampling-task","41","512516","0.0-5.0-0.33-0.33","100","pokq8zyb","high"
"2","15","free","220","79","82","purple-92","purple","422","sampling-task","42","514492","0.0-5.0-0.34-0.34","100","pokq8zyb","high"
"2","16","free","220","79","80","purple-215","purple","478","sampling-task","43","516828","0.0-5.0-0.35-0.35","100","pokq8zyb","high"
"2","17","free","220","79","92","purple-149","purple","542","sampling-task","44","519324","0.0-5.0-0.36-0.36","100","pokq8zyb","high"
"2","18","free","220","79","73","purple-210","purple","662","sampling-task","45","521108","0.0-5.0-0.37-0.37","100","pokq8zyb","high"
"2","19","free","220","79","86","purple-135","purple","486","sampling-task","46","523212","0.0-5.0-0.38-0.38","100","pokq8zyb","high"
"2","20","free","220","79","65","purple-196","purple","542","sampling-task","47","524908","0.0-5.0-0.39-0.39","100","pokq8zyb","high"
"2","21","free","220","79","112","purple-88","purple","477","sampling-task","48","527164","0.0-5.0-0.40-0.40","100","pokq8zyb","high"
"2","22","free","220","79","98","purple-148","purple","390","sampling-task","49","528620","0.0-5.0-0.41-0.41","100","pokq8zyb","high"
"2","23","free","220","79","103","purple-152","purple","702","sampling-task","50","530556","0.0-5.0-0.42-0.42","100","pokq8zyb","high"
"2","24","free","220","79","56","purple-40","purple","478","sampling-task","51","531868","0.0-5.0-0.43-0.43","100","pokq8zyb","high"
"2","25","free","220","79","51","purple-193","purple","534","sampling-task","52","533252","0.0-5.0-0.44-0.44","100","pokq8zyb","high"
"2","26","free","220","79","83","purple-131","purple","422","sampling-task","53","534604","0.0-5.0-0.45-0.45","100","pokq8zyb","high"
"2","27","free","220","79","77","purple-195","purple","366","sampling-task","54","536188","0.0-5.0-0.46-0.46","100","pokq8zyb","high"
"2","28","free","220","79","71","purple-26","purple","438","sampling-task","55","537924","0.0-5.0-0.47-0.47","100","pokq8zyb","high"
"2","29","free","220","79","57","purple-61","purple","510","sampling-task","56","539340","0.0-5.0-0.48-0.48","100","pokq8zyb","high"
"2","30","free","220","79","102","purple-35","purple","438","sampling-task","57","541700","0.0-5.0-0.49-0.49","100","pokq8zyb","high"
"2","31","free","220","79","92","purple-14","purple","614","sampling-task","58","543628","0.0-5.0-0.50-0.50","100","pokq8zyb","high"
"2","32","free","220","79","82","purple-65","purple","390","sampling-task","59","545268","0.0-5.0-0.51-0.51","100","pokq8zyb","high"
"2","33","free","220","79","82","purple-177","purple","430","sampling-task","60","546860","0.0-5.0-0.52-0.52","100","pokq8zyb","high"
"2","34","free","220","79","93","purple-216","purple","934","sampling-task","61","549492","0.0-5.0-0.53-0.53","100","pokq8zyb","high"
"2","35","free","220","79","80","purple-169","purple","470","sampling-task","62","554796","0.0-5.0-0.54-0.54","100","pokq8zyb","high"
"2","36","free","220","79","92","purple-67","purple","470","sampling-task","63","557422","0.0-5.0-0.55-0.55","100","pokq8zyb","high"
"2","37","free","220","79","71","purple-203","purple","374","sampling-task","64","558798","0.0-5.0-0.56-0.56","100","pokq8zyb","high"
"2","38","free","220","79","108","purple-91","purple","422","sampling-task","65","561150","0.0-5.0-0.57-0.57","100","pokq8zyb","high"
"2","39","free","220","79","56","purple-59","purple","351","sampling-task","66","562702","0.0-5.0-0.58-0.58","100","pokq8zyb","high"
"2","40","free","220","79","68","purple-76","purple","951","sampling-task","67","564486","0.0-5.0-0.59-0.59","100","pokq8zyb","high"
"2","41","free","220","79","97","purple-53","purple","670","sampling-task","68","566375","0.0-5.0-0.60-0.60","100","pokq8zyb","high"
"3","1","fixed","10","110","126","yellow-116","yellow","2652","sampling-task","71","592398","0.0-5.0-0.61-0.61","100","pokq8zyb","high"
"3","2","fixed","10","110","120","yellow-18","yellow","773","sampling-task","72","595150","0.0-5.0-0.62-0.62","100","pokq8zyb","high"
"3","3","fixed","10","110","117","yellow-41","yellow","806","sampling-task","73","597110","0.0-5.0-0.63-0.63","100","pokq8zyb","high"
"3","4","fixed","10","110","117","yellow-89","yellow","798","sampling-task","74","599046","0.0-5.0-0.64-0.64","100","pokq8zyb","high"
"3","5","fixed","10","110","74","yellow-140","yellow","726","sampling-task","75","601182","0.0-5.0-0.65-0.65","100","pokq8zyb","high"
"3","6","fixed","10","110","100","yellow-107","yellow","527","sampling-task","76","603718","0.0-5.0-0.66-0.66","100","pokq8zyb","high"
"3","7","fixed","10","110","122","yellow-123","yellow","621","sampling-task","77","605854","0.0-5.0-0.67-0.67","100","pokq8zyb","high"
"3","8","fixed","10","110","112","yellow-187","yellow","662","sampling-task","78","608150","0.0-5.0-0.68-0.68","100","pokq8zyb","high"
"3","9","fixed","10","110","123","yellow-85","yellow","774","sampling-task","79","610622","0.0-5.0-0.69-0.69","100","pokq8zyb","high"
"3","10","fixed","10","110","62","yellow-93","yellow","862","sampling-task","80","612942","0.0-5.0-0.70-0.70","100","pokq8zyb","high"
"4","1","free","220","99","105","green-219","green","1813","sampling-task","83","642986","0.0-5.0-0.71-0.71","100","pokq8zyb","high"
"4","2","free","220","99","97","green-35","green","629","sampling-task","84","644570","0.0-5.0-0.72-0.72","100","pokq8zyb","high"
"4","3","free","220","99","61","green-148","green","350","sampling-task","85","646034","0.0-5.0-0.73-0.73","100","pokq8zyb","high"
"4","4","free","220","99","68","green-103","green","326","sampling-task","86","647226","0.0-5.0-0.74-0.74","100","pokq8zyb","high"
"4","5","free","220","99","94","green-212","green","326","sampling-task","87","649010","0.0-5.0-0.75-0.75","100","pokq8zyb","high"
"4","6","free","220","99","89","green-14","green","814","sampling-task","88","651138","0.0-5.0-0.76-0.76","100","pokq8zyb","high"
"4","7","free","220","99","51","green-7","green","436","sampling-task","89","652410","0.0-5.0-0.77-0.77","100","pokq8zyb","high"
"4","8","free","220","99","91","green-160","green","438","sampling-task","90","653762","0.0-5.0-0.78-0.78","100","pokq8zyb","high"
"4","9","free","220","99","108","green-164","green","414","sampling-task","91","655186","0.0-5.0-0.79-0.79","100","pokq8zyb","high"
"4","10","free","220","99","51","green-51","green","486","sampling-task","92","656858","0.0-5.0-0.80-0.80","100","pokq8zyb","high"
"4","11","free","220","99","106","green-39","green","494","sampling-task","93","658746","0.0-5.0-0.81-0.81","100","pokq8zyb","high"
"4","12","free","220","99","118","green-210","green","462","sampling-task","94","660570","0.0-5.0-0.82-0.82","100","pokq8zyb","high"
"4","13","free","220","99","116","green-78","green","406","sampling-task","95","661978","0.0-5.0-0.83-0.83","100","pokq8zyb","high"
"4","14","free","220","99","102","green-62","green","413","sampling-task","96","663442","0.0-5.0-0.84-0.84","100","pokq8zyb","high"
"4","15","free","220","99","105","green-188","green","494","sampling-task","97","665242","0.0-5.0-0.85-0.85","100","pokq8zyb","high"
"4","16","free","220","99","86","green-54","green","382","sampling-task","98","666722","0.0-5.0-0.86-0.86","100","pokq8zyb","high"
"4","17","free","220","99","67","green-150","green","334","sampling-task","99","668018","0.0-5.0-0.87-0.87","100","pokq8zyb","high"
"4","18","free","220","99","102","green-14","green","342","sampling-task","100","669458","0.0-5.0-0.88-0.88","100","pokq8zyb","high"
"4","19","free","220","99","84","green-62","green","430","sampling-task","101","671266","0.0-5.0-0.89-0.89","100","pokq8zyb","high"
"4","20","free","220","99","91","green-108","green","446","sampling-task","102","676205","0.0-5.0-0.90-0.90","100","pokq8zyb","high"
"4","21","free","220","99","108","green-213","green","574","sampling-task","103","678053","0.0-5.0-0.91-0.91","100","pokq8zyb","high"
"4","22","free","220","99","86","green-49","green","894","sampling-task","104","680285","0.0-5.0-0.92-0.92","100","pokq8zyb","high"
"4","23","free","220","99","90","green-149","green","502","sampling-task","105","682189","0.0-5.0-0.93-0.93","100","pokq8zyb","high"
"4","24","free","220","99","118","green-204","green","494","sampling-task","106","684142","0.0-5.0-0.94-0.94","100","pokq8zyb","high"
"4","25","free","220","99","86","green-45","green","518","sampling-task","107","686525","0.0-5.0-0.95-0.95","100","pokq8zyb","high"
"4","26","free","220","99","137","green-89","green","422","sampling-task","108","689477","0.0-5.0-0.96-0.96","100","pokq8zyb","high"
"4","27","free","220","99","95","green-192","green","646","sampling-task","109","691189","0.0-5.0-0.97-0.97","100","pokq8zyb","high"
"4","28","free","220","99","73","green-180","green","470","sampling-task","110","692597","0.0-5.0-0.98-0.98","100","pokq8zyb","high"
"4","29","free","220","99","107","green-163","green","462","sampling-task","111","694213","0.0-5.0-0.99-0.99","100","pokq8zyb","high"
"4","30","free","220","99","135","green-186","green","1558","sampling-task","112","697237","0.0-5.0-0.100-0.100","100","pokq8zyb","high"
"5","1","fixed","5","50","54","orange-29","orange","1957","sampling-task","115","724229","0.0-5.0-0.101-0.101","100","pokq8zyb","high"
"5","2","fixed","5","50","28","orange-128","orange","670","sampling-task","116","728573","0.0-5.0-0.102-0.102","100","pokq8zyb","high"
"5","3","fixed","5","50","43","orange-207","orange","662","sampling-task","117","731005","0.0-5.0-0.103-0.103","100","pokq8zyb","high"
"5","4","fixed","5","50","56","orange-90","orange","1222","sampling-task","118","733477","0.0-5.0-0.104-0.104","100","pokq8zyb","high"
"5","5","fixed","5","50","39","orange-141","orange","782","sampling-task","119","735485","0.0-5.0-0.105-0.105","100","pokq8zyb","high"
"6","1","free","220","30","33","red-157","red","1741","sampling-task","122","759400","0.0-5.0-0.106-0.106","100","pokq8zyb","high"
"6","2","free","220","30","49","red-109","red","422","sampling-task","123","760920","0.0-5.0-0.107-0.107","100","pokq8zyb","high"
"6","3","free","220","30","-5","red-217","red","365","sampling-task","124","762496","0.0-5.0-0.108-0.108","100","pokq8zyb","high"
"6","4","free","220","30","19","red-38","red","366","sampling-task","125","764000","0.0-5.0-0.109-0.109","100","pokq8zyb","high"
"6","5","free","220","30","12","red-177","red","366","sampling-task","126","765304","0.0-5.0-0.110-0.110","100","pokq8zyb","high"
"6","6","free","220","30","64","red-174","red","358","sampling-task","127","766568","0.0-5.0-0.111-0.111","100","pokq8zyb","high"
"6","7","free","220","30","33","red-199","red","326","sampling-task","128","767728","0.0-5.0-0.112-0.112","100","pokq8zyb","high"
"6","8","free","220","30","21","red-117","red","301","sampling-task","129","768904","0.0-5.0-0.113-0.113","100","pokq8zyb","high"
"6","9","free","220","30","32","red-7","red","262","sampling-task","130","770016","0.0-5.0-0.114-0.114","100","pokq8zyb","high"
"6","10","free","220","30","27","red-213","red","334","sampling-task","131","771176","0.0-5.0-0.115-0.115","100","pokq8zyb","high"
"6","11","free","220","30","42","red-51","red","278","sampling-task","132","772296","0.0-5.0-0.116-0.116","100","pokq8zyb","high"
"6","12","free","220","30","-6","red-153","red","230","sampling-task","133","774016","0.0-5.0-0.117-0.117","100","pokq8zyb","high"
"6","13","free","220","30","44","red-76","red","326","sampling-task","134","775216","0.0-5.0-0.118-0.118","100","pokq8zyb","high"
"6","14","free","220","30","44","red-98","red","270","sampling-task","135","776536","0.0-5.0-0.119-0.119","100","pokq8zyb","high"
"6","15","free","220","30","47","red-79","red","334","sampling-task","136","777824","0.0-5.0-0.120-0.120","100","pokq8zyb","high"
"6","16","free","220","30","1","red-216","red","326","sampling-task","137","779505","0.0-5.0-0.121-0.121","100","pokq8zyb","high"
"6","17","free","220","30","44","red-7","red","350","sampling-task","138","780968","0.0-5.0-0.122-0.122","100","pokq8zyb","high"
"6","18","free","220","30","54","red-191","red","438","sampling-task","139","782464","0.0-5.0-0.123-0.123","100","pokq8zyb","high"
"6","19","free","220","30","5","red-210","red","446","sampling-task","140","783936","0.0-5.0-0.124-0.124","100","pokq8zyb","high"
"6","20","free","220","30","29","red-154","red","430","sampling-task","141","785440","0.0-5.0-0.125-0.125","100","pokq8zyb","high"
"6","21","free","220","30","45","red-72","red","446","sampling-task","142","786896","0.0-5.0-0.126-0.126","100","pokq8zyb","high"
"6","22","free","220","30","26","red-122","red","342","sampling-task","143","788256","0.0-5.0-0.127-0.127","100","pokq8zyb","high"
"6","23","free","220","30","42","red-73","red","294","sampling-task","144","789792","0.0-5.0-0.128-0.128","100","pokq8zyb","high"
"6","24","free","220","30","13","red-220","red","413","sampling-task","145","791448","0.0-5.0-0.129-0.129","100","pokq8zyb","high"
"6","25","free","220","30","46","red-36","red","366","sampling-task","146","792728","0.0-5.0-0.130-0.130","100","pokq8zyb","high"
"6","26","free","220","30","18","red-43","red","334","sampling-task","147","794216","0.0-5.0-0.131-0.131","100","pokq8zyb","high"
"6","27","free","220","30","44","red-57","red","309","sampling-task","148","795648","0.0-5.0-0.132-0.132","100","pokq8zyb","high"
"6","28","free","220","30","29","red-156","red","358","sampling-task","149","797195","0.0-5.0-0.133-0.133","100","pokq8zyb","high"
"6","29","free","220","30","10","red-68","red","957","sampling-task","150","799524","0.0-5.0-0.134-0.134","100","pokq8zyb","high"
