"round_number","sample_number","sampling_type","nSamples","mean","feedback","stimulus","stimulus_colour","rt","trial_type","trial_index","time_elapsed","internal_node_id","participant","randomID","condition"
"1","1","fixed","10","10","26","yellow-125","yellow","4494","sampling-task","6","709015","0.0-5.0-0.0-0.0","97","dt3pcbn8","low"
"1","2","fixed","10","10","38","yellow-125","yellow","1045","sampling-task","7","712302","0.0-5.0-0.1-0.1","97","dt3pcbn8","low"
"1","3","fixed","10","10","4","yellow-125","yellow","902","sampling-task","8","714390","0.0-5.0-0.2-0.2","97","dt3pcbn8","low"
"1","4","fixed","10","10","-13","yellow-125","yellow","734","sampling-task","9","716694","0.0-5.0-0.3-0.3","97","dt3pcbn8","low"
"1","5","fixed","10","10","29","yellow-125","yellow","1430","sampling-task","10","720094","0.0-5.0-0.4-0.4","97","dt3pcbn8","low"
"1","6","fixed","10","10","21","yellow-125","yellow","694","sampling-task","11","721910","0.0-5.0-0.5-0.5","97","dt3pcbn8","low"
"1","7","fixed","10","10","3","yellow-125","yellow","742","sampling-task","12","723574","0.0-5.0-0.6-0.6","97","dt3pcbn8","low"
"1","8","fixed","10","10","3","yellow-125","yellow","566","sampling-task","13","725094","0.0-5.0-0.7-0.7","97","dt3pcbn8","low"
"1","9","fixed","10","10","-16","yellow-125","yellow","550","sampling-task","14","726838","0.0-5.0-0.8-0.8","97","dt3pcbn8","low"
"1","10","fixed","10","10","-10","yellow-125","yellow","654","sampling-task","15","728486","0.0-5.0-0.9-0.9","97","dt3pcbn8","low"
"2","1","free","220","73","105","blue-74","blue","4732","sampling-task","18","780981","0.0-5.0-0.10-0.10","97","dt3pcbn8","low"
"3","1","fixed","5","119","130","orange-163","orange","916","sampling-task","21","806717","0.0-5.0-0.11-0.11","97","dt3pcbn8","low"
"3","2","fixed","5","119","118","orange-163","orange","1301","sampling-task","22","812420","0.0-5.0-0.12-0.12","97","dt3pcbn8","low"
"3","3","fixed","5","119","115","orange-163","orange","1038","sampling-task","23","814892","0.0-5.0-0.13-0.13","97","dt3pcbn8","low"
"3","4","fixed","5","119","98","orange-163","orange","887","sampling-task","24","817436","0.0-5.0-0.14-0.14","97","dt3pcbn8","low"
"3","5","fixed","5","119","114","orange-163","orange","918","sampling-task","25","822868","0.0-5.0-0.15-0.15","97","dt3pcbn8","low"
"4","1","free","220","58","34","red-80","red","10909","sampling-task","28","852556","0.0-5.0-0.16-0.16","97","dt3pcbn8","low"
"4","2","free","220","58","41","red-80","red","702","sampling-task","29","855964","0.0-5.0-0.17-0.17","97","dt3pcbn8","low"
"4","3","free","220","58","84","red-80","red","694","sampling-task","30","858292","0.0-5.0-0.18-0.18","97","dt3pcbn8","low"
"4","4","free","220","58","89","red-80","red","1030","sampling-task","31","862020","0.0-5.0-0.19-0.19","97","dt3pcbn8","low"
"4","5","free","220","58","62","red-80","red","854","sampling-task","32","865316","0.0-5.0-0.20-0.20","97","dt3pcbn8","low"
"4","6","free","220","58","67","red-80","red","815","sampling-task","33","867939","0.0-5.0-0.21-0.21","97","dt3pcbn8","low"
"5","1","fixed","20","93","100","green-22","green","5125","sampling-task","36","897203","0.0-5.0-0.22-0.22","97","dt3pcbn8","low"
"5","2","fixed","20","93","105","green-22","green","590","sampling-task","37","898691","0.0-5.0-0.23-0.23","97","dt3pcbn8","low"
"5","3","fixed","20","93","90","green-22","green","511","sampling-task","38","900019","0.0-5.0-0.24-0.24","97","dt3pcbn8","low"
"5","4","fixed","20","93","54","green-22","green","470","sampling-task","39","901371","0.0-5.0-0.25-0.25","97","dt3pcbn8","low"
"5","5","fixed","20","93","89","green-22","green","495","sampling-task","40","902723","0.0-5.0-0.26-0.26","97","dt3pcbn8","low"
"5","6","fixed","20","93","79","green-22","green","399","sampling-task","41","904467","0.0-5.0-0.27-0.27","97","dt3pcbn8","low"
"5","7","fixed","20","93","133","green-22","green","455","sampling-task","42","905803","0.0-5.0-0.28-0.28","97","dt3pcbn8","low"
"5","8","fixed","20","93","86","green-22","green","430","sampling-task","43","907171","0.0-5.0-0.29-0.29","97","dt3pcbn8","low"
"5","9","fixed","20","93","72","green-22","green","455","sampling-task","44","908851","0.0-5.0-0.30-0.30","97","dt3pcbn8","low"
"5","10","fixed","20","93","79","green-22","green","398","sampling-task","45","910211","0.0-5.0-0.31-0.31","97","dt3pcbn8","low"
"5","11","fixed","20","93","109","green-22","green","454","sampling-task","46","911924","0.0-5.0-0.32-0.32","97","dt3pcbn8","low"
"5","12","fixed","20","93","112","green-22","green","438","sampling-task","47","913603","0.0-5.0-0.33-0.33","97","dt3pcbn8","low"
"5","13","fixed","20","93","108","green-22","green","438","sampling-task","48","915179","0.0-5.0-0.34-0.34","97","dt3pcbn8","low"
"5","14","fixed","20","93","136","green-22","green","430","sampling-task","49","916547","0.0-5.0-0.35-0.35","97","dt3pcbn8","low"
"5","15","fixed","20","93","83","green-22","green","446","sampling-task","50","918084","0.0-5.0-0.36-0.36","97","dt3pcbn8","low"
"5","16","fixed","20","93","98","green-22","green","414","sampling-task","51","919515","0.0-5.0-0.37-0.37","97","dt3pcbn8","low"
"5","17","fixed","20","93","84","green-22","green","407","sampling-task","52","921043","0.0-5.0-0.38-0.38","97","dt3pcbn8","low"
"5","18","fixed","20","93","111","green-22","green","335","sampling-task","53","922267","0.0-5.0-0.39-0.39","97","dt3pcbn8","low"
"5","19","fixed","20","93","107","green-22","green","366","sampling-task","54","923764","0.0-5.0-0.40-0.40","97","dt3pcbn8","low"
"5","20","fixed","20","93","111","green-22","green","366","sampling-task","55","925115","0.0-5.0-0.41-0.41","97","dt3pcbn8","low"
"6","1","free","220","34","26","purple-136","purple","1717","sampling-task","58","948122","0.0-5.0-0.42-0.42","97","dt3pcbn8","low"
"6","2","free","220","34","2","purple-136","purple","574","sampling-task","59","949883","0.0-5.0-0.43-0.43","97","dt3pcbn8","low"
"6","3","free","220","34","38","purple-136","purple","406","sampling-task","60","951187","0.0-5.0-0.44-0.44","97","dt3pcbn8","low"
"6","4","free","220","34","40","purple-136","purple","366","sampling-task","61","952643","0.0-5.0-0.45-0.45","97","dt3pcbn8","low"
"6","5","free","220","34","24","purple-136","purple","334","sampling-task","62","953931","0.0-5.0-0.46-0.46","97","dt3pcbn8","low"
"6","6","free","220","34","49","purple-136","purple","502","sampling-task","63","955290","0.0-5.0-0.47-0.47","97","dt3pcbn8","low"
"6","7","free","220","34","47","purple-136","purple","478","sampling-task","64","956683","0.0-5.0-0.48-0.48","97","dt3pcbn8","low"
"6","8","free","220","34","61","purple-136","purple","414","sampling-task","65","958339","0.0-5.0-0.49-0.49","97","dt3pcbn8","low"
"6","9","free","220","34","27","purple-136","purple","542","sampling-task","66","960154","0.0-5.0-0.50-0.50","97","dt3pcbn8","low"
