"round_number","sample_number","sampling_type","nSamples","mean","feedback","stimulus","stimulus_colour","rt","trial_type","trial_index","time_elapsed","internal_node_id","participant","randomID","condition"
"1","1","fixed","5","78","74","yellow-175","yellow","4473","sampling-task","6","251017","0.0-5.0-0.0-0.0","45","aas3cp82","high"
"1","2","fixed","5","78","114","yellow-63","yellow","1502","sampling-task","7","254912","0.0-5.0-0.1-0.1","45","aas3cp82","high"
"1","3","fixed","5","78","65","yellow-178","yellow","919","sampling-task","8","257609","0.0-5.0-0.2-0.2","45","aas3cp82","high"
"1","4","fixed","5","78","100","yellow-153","yellow","1117","sampling-task","9","260416","0.0-5.0-0.3-0.3","45","aas3cp82","high"
"1","5","fixed","5","78","75","yellow-72","yellow","918","sampling-task","10","263016","0.0-5.0-0.4-0.4","45","aas3cp82","high"
"2","1","free","220","113","96","purple-35","purple","7996","sampling-task","13","317184","0.0-5.0-0.5-0.5","45","aas3cp82","high"
"2","2","free","220","113","133","purple-33","purple","4142","sampling-task","14","323552","0.0-5.0-0.6-0.6","45","aas3cp82","high"
"2","3","free","220","113","134","purple-38","purple","2142","sampling-task","15","327016","0.0-5.0-0.7-0.7","45","aas3cp82","high"
"2","4","free","220","113","101","purple-22","purple","614","sampling-task","16","329456","0.0-5.0-0.8-0.8","45","aas3cp82","high"
"2","5","free","220","113","79","purple-167","purple","710","sampling-task","17","331608","0.0-5.0-0.9-0.9","45","aas3cp82","high"
"2","6","free","220","113","115","purple-148","purple","718","sampling-task","18","333832","0.0-5.0-0.10-0.10","45","aas3cp82","high"
"2","7","free","220","113","155","purple-143","purple","750","sampling-task","19","336439","0.0-5.0-0.11-0.11","45","aas3cp82","high"
"2","8","free","220","113","106","purple-149","purple","790","sampling-task","20","338624","0.0-5.0-0.12-0.12","45","aas3cp82","high"
"2","9","free","220","113","118","purple-99","purple","702","sampling-task","21","342008","0.0-5.0-0.13-0.13","45","aas3cp82","high"
"2","10","free","220","113","113","purple-79","purple","702","sampling-task","22","343998","0.0-5.0-0.14-0.14","45","aas3cp82","high"
"2","11","free","220","113","96","purple-68","purple","663","sampling-task","23","346638","0.0-5.0-0.15-0.15","45","aas3cp82","high"
"3","1","fixed","10","14","44","blue-45","blue","8437","sampling-task","26","382599","0.0-5.0-0.16-0.16","45","aas3cp82","high"
"3","2","fixed","10","14","-9","blue-102","blue","1685","sampling-task","27","385862","0.0-5.0-0.17-0.17","45","aas3cp82","high"
"3","3","fixed","10","14","-17","blue-110","blue","687","sampling-task","28","387903","0.0-5.0-0.18-0.18","45","aas3cp82","high"
"3","4","fixed","10","14","32","blue-136","blue","638","sampling-task","29","389998","0.0-5.0-0.19-0.19","45","aas3cp82","high"
"3","5","fixed","10","14","12","blue-83","blue","975","sampling-task","30","392703","0.0-5.0-0.20-0.20","45","aas3cp82","high"
"3","6","fixed","10","14","11","blue-114","blue","621","sampling-task","31","394791","0.0-5.0-0.21-0.21","45","aas3cp82","high"
"3","7","fixed","10","14","-13","blue-48","blue","678","sampling-task","32","396814","0.0-5.0-0.22-0.22","45","aas3cp82","high"
"3","8","fixed","10","14","9","blue-19","blue","670","sampling-task","33","398775","0.0-5.0-0.23-0.23","45","aas3cp82","high"
"3","9","fixed","10","14","32","blue-35","blue","614","sampling-task","34","400582","0.0-5.0-0.24-0.24","45","aas3cp82","high"
"3","10","fixed","10","14","9","blue-1","blue","678","sampling-task","35","402543","0.0-5.0-0.25-0.25","45","aas3cp82","high"
"4","1","free","220","59","54","orange-180","orange","5373","sampling-task","38","442574","0.0-5.0-0.26-0.26","45","aas3cp82","high"
"4","2","free","220","59","32","orange-115","orange","942","sampling-task","39","445038","0.0-5.0-0.27-0.27","45","aas3cp82","high"
"4","3","free","220","59","92","orange-184","orange","879","sampling-task","40","448103","0.0-5.0-0.28-0.28","45","aas3cp82","high"
"4","4","free","220","59","31","orange-132","orange","678","sampling-task","41","450574","0.0-5.0-0.29-0.29","45","aas3cp82","high"
"4","5","free","220","59","71","orange-20","orange","678","sampling-task","42","452519","0.0-5.0-0.30-0.30","45","aas3cp82","high"
"4","6","free","220","59","50","orange-101","orange","814","sampling-task","43","454638","0.0-5.0-0.31-0.31","45","aas3cp82","high"
"4","7","free","220","59","67","orange-183","orange","663","sampling-task","44","457151","0.0-5.0-0.32-0.32","45","aas3cp82","high"
"4","8","free","220","59","13","orange-82","orange","822","sampling-task","45","459238","0.0-5.0-0.33-0.33","45","aas3cp82","high"
"4","9","free","220","59","60","orange-217","orange","742","sampling-task","46","461335","0.0-5.0-0.34-0.34","45","aas3cp82","high"
"4","10","free","220","59","51","orange-160","orange","614","sampling-task","47","467038","0.0-5.0-0.35-0.35","45","aas3cp82","high"
"4","11","free","220","59","96","orange-154","orange","692","sampling-task","48","469310","0.0-5.0-0.36-0.36","45","aas3cp82","high"
"5","1","fixed","20","36","53","green-128","green","5084","sampling-task","51","501822","0.0-5.0-0.37-0.37","45","aas3cp82","high"
"5","2","fixed","20","36","47","green-176","green","518","sampling-task","52","504006","0.0-5.0-0.38-0.38","45","aas3cp82","high"
"5","3","fixed","20","36","66","green-49","green","606","sampling-task","53","506198","0.0-5.0-0.39-0.39","45","aas3cp82","high"
"5","4","fixed","20","36","43","green-6","green","647","sampling-task","54","508542","0.0-5.0-0.40-0.40","45","aas3cp82","high"
"5","5","fixed","20","36","26","green-173","green","679","sampling-task","55","510814","0.0-5.0-0.41-0.41","45","aas3cp82","high"
"5","6","fixed","20","36","45","green-85","green","694","sampling-task","56","512654","0.0-5.0-0.42-0.42","45","aas3cp82","high"
"5","7","fixed","20","36","71","green-101","green","551","sampling-task","57","514478","0.0-5.0-0.43-0.43","45","aas3cp82","high"
"5","8","fixed","20","36","37","green-30","green","662","sampling-task","58","516558","0.0-5.0-0.44-0.44","45","aas3cp82","high"
"5","9","fixed","20","36","41","green-56","green","606","sampling-task","59","518478","0.0-5.0-0.45-0.45","45","aas3cp82","high"
"5","10","fixed","20","36","40","green-135","green","614","sampling-task","60","520342","0.0-5.0-0.46-0.46","45","aas3cp82","high"
"5","11","fixed","20","36","26","green-88","green","701","sampling-task","61","522406","0.0-5.0-0.47-0.47","45","aas3cp82","high"
"5","12","fixed","20","36","29","green-81","green","686","sampling-task","62","524270","0.0-5.0-0.48-0.48","45","aas3cp82","high"
"5","13","fixed","20","36","22","green-196","green","582","sampling-task","63","525862","0.0-5.0-0.49-0.49","45","aas3cp82","high"
"5","14","fixed","20","36","53","green-19","green","598","sampling-task","64","527669","0.0-5.0-0.50-0.50","45","aas3cp82","high"
"5","15","fixed","20","36","11","green-207","green","710","sampling-task","65","531630","0.0-5.0-0.51-0.51","45","aas3cp82","high"
"5","16","fixed","20","36","60","green-194","green","630","sampling-task","66","533638","0.0-5.0-0.52-0.52","45","aas3cp82","high"
"5","17","fixed","20","36","61","green-201","green","1310","sampling-task","67","537109","0.0-5.0-0.53-0.53","45","aas3cp82","high"
"5","18","fixed","20","36","47","green-6","green","454","sampling-task","68","538797","0.0-5.0-0.54-0.54","45","aas3cp82","high"
"5","19","fixed","20","36","36","green-162","green","598","sampling-task","69","540614","0.0-5.0-0.55-0.55","45","aas3cp82","high"
"5","20","fixed","20","36","63","green-130","green","654","sampling-task","70","542262","0.0-5.0-0.56-0.56","45","aas3cp82","high"
"6","1","free","220","98","97","red-160","red","2637","sampling-task","73","580238","0.0-5.0-0.57-0.57","45","aas3cp82","high"
"6","2","free","220","98","135","red-90","red","510","sampling-task","74","582253","0.0-5.0-0.58-0.58","45","aas3cp82","high"
"6","3","free","220","98","109","red-26","red","758","sampling-task","75","584382","0.0-5.0-0.59-0.59","45","aas3cp82","high"
"6","4","free","220","98","88","red-178","red","662","sampling-task","76","586206","0.0-5.0-0.60-0.60","45","aas3cp82","high"
"6","5","free","220","98","89","red-140","red","613","sampling-task","77","587925","0.0-5.0-0.61-0.61","45","aas3cp82","high"
"6","6","free","220","98","86","red-188","red","582","sampling-task","78","589884","0.0-5.0-0.62-0.62","45","aas3cp82","high"
"6","7","free","220","98","120","red-106","red","622","sampling-task","79","592516","0.0-5.0-0.63-0.63","45","aas3cp82","high"
"6","8","free","220","98","60","red-159","red","654","sampling-task","80","594181","0.0-5.0-0.64-0.64","45","aas3cp82","high"
"6","9","free","220","98","137","red-83","red","534","sampling-task","81","595973","0.0-5.0-0.65-0.65","45","aas3cp82","high"
"6","10","free","220","98","77","red-2","red","574","sampling-task","82","597669","0.0-5.0-0.66-0.66","45","aas3cp82","high"
"6","11","free","220","98","135","red-212","red","502","sampling-task","83","599637","0.0-5.0-0.67-0.67","45","aas3cp82","high"
"6","12","free","220","98","122","red-58","red","590","sampling-task","84","601365","0.0-5.0-0.68-0.68","45","aas3cp82","high"
"6","13","free","220","98","135","red-5","red","510","sampling-task","85","602997","0.0-5.0-0.69-0.69","45","aas3cp82","high"
"6","14","free","220","98","103","red-90","red","525","sampling-task","86","604949","0.0-5.0-0.70-0.70","45","aas3cp82","high"
"6","15","free","220","98","110","red-162","red","614","sampling-task","87","606717","0.0-5.0-0.71-0.71","45","aas3cp82","high"
"6","16","free","220","98","96","red-156","red","518","sampling-task","88","608397","0.0-5.0-0.72-0.72","45","aas3cp82","high"
"6","17","free","220","98","69","red-76","red","502","sampling-task","89","610109","0.0-5.0-0.73-0.73","45","aas3cp82","high"
"6","18","free","220","98","103","red-87","red","541","sampling-task","90","611957","0.0-5.0-0.74-0.74","45","aas3cp82","high"
"6","19","free","220","98","117","red-195","red","478","sampling-task","91","614021","0.0-5.0-0.75-0.75","45","aas3cp82","high"
