"round_number","sample_number","sampling_type","nSamples","mean","feedback","stimulus","stimulus_colour","rt","trial_type","trial_index","time_elapsed","internal_node_id","participant","randomID","condition"
"1","1","fixed","10","78","100","blue-134","blue","19840","sampling-task","6","2893697","0.0-5.0-0.0-0.0","72","jqcwmlgv","high"
"1","2","fixed","10","78","89","blue-121","blue","3118","sampling-task","7","2901505","0.0-5.0-0.1-0.1","72","jqcwmlgv","high"
"1","3","fixed","10","78","80","blue-166","blue","2102","sampling-task","8","2906353","0.0-5.0-0.2-0.2","72","jqcwmlgv","high"
"1","4","fixed","10","78","103","blue-212","blue","1958","sampling-task","9","2910017","0.0-5.0-0.3-0.3","72","jqcwmlgv","high"
"1","5","fixed","10","78","77","blue-219","blue","1647","sampling-task","10","2913097","0.0-5.0-0.4-0.4","72","jqcwmlgv","high"
"1","6","fixed","10","78","120","blue-20","blue","1286","sampling-task","11","2917385","0.0-5.0-0.5-0.5","72","jqcwmlgv","high"
"1","7","fixed","10","78","79","blue-41","blue","2806","sampling-task","12","2921641","0.0-5.0-0.6-0.6","72","jqcwmlgv","high"
"1","8","fixed","10","78","64","blue-35","blue","1710","sampling-task","13","2925009","0.0-5.0-0.7-0.7","72","jqcwmlgv","high"
"1","9","fixed","10","78","80","blue-109","blue","918","sampling-task","14","2927441","0.0-5.0-0.8-0.8","72","jqcwmlgv","high"
"1","10","fixed","10","78","60","blue-186","blue","1430","sampling-task","15","2930417","0.0-5.0-0.9-0.9","72","jqcwmlgv","high"
"2","1","free","220","111","100","yellow-152","yellow","12336","sampling-task","18","2999539","0.0-5.0-0.10-0.10","72","jqcwmlgv","high"
"2","2","free","220","111","113","yellow-213","yellow","894","sampling-task","19","3003578","0.0-5.0-0.11-0.11","72","jqcwmlgv","high"
"2","3","free","220","111","117","yellow-196","yellow","1279","sampling-task","20","3008522","0.0-5.0-0.12-0.12","72","jqcwmlgv","high"
"2","4","free","220","111","116","yellow-55","yellow","951","sampling-task","21","3011986","0.0-5.0-0.13-0.13","72","jqcwmlgv","high"
"2","5","free","220","111","109","yellow-27","yellow","1926","sampling-task","22","3015618","0.0-5.0-0.14-0.14","72","jqcwmlgv","high"
"2","6","free","220","111","113","yellow-187","yellow","1142","sampling-task","23","3022146","0.0-5.0-0.15-0.15","72","jqcwmlgv","high"
"2","7","free","220","111","83","yellow-135","yellow","1318","sampling-task","24","3026682","0.0-5.0-0.16-0.16","72","jqcwmlgv","high"
"2","8","free","220","111","116","yellow-126","yellow","1535","sampling-task","25","3030690","0.0-5.0-0.17-0.17","72","jqcwmlgv","high"
"2","9","free","220","111","98","yellow-194","yellow","1918","sampling-task","26","3034330","0.0-5.0-0.18-0.18","72","jqcwmlgv","high"
"2","10","free","220","111","132","yellow-19","yellow","3590","sampling-task","27","3039850","0.0-5.0-0.19-0.19","72","jqcwmlgv","high"
"2","11","free","220","111","139","yellow-124","yellow","2599","sampling-task","28","3043794","0.0-5.0-0.20-0.20","72","jqcwmlgv","high"
"2","12","free","220","111","125","yellow-90","yellow","1206","sampling-task","29","3046458","0.0-5.0-0.21-0.21","72","jqcwmlgv","high"
"2","13","free","220","111","127","yellow-80","yellow","1095","sampling-task","30","3048738","0.0-5.0-0.22-0.22","72","jqcwmlgv","high"
"2","14","free","220","111","82","yellow-8","yellow","1063","sampling-task","31","3050875","0.0-5.0-0.23-0.23","72","jqcwmlgv","high"
"2","15","free","220","111","110","yellow-172","yellow","806","sampling-task","32","3057794","0.0-5.0-0.24-0.24","72","jqcwmlgv","high"
"2","16","free","220","111","105","yellow-177","yellow","1078","sampling-task","33","3060514","0.0-5.0-0.25-0.25","72","jqcwmlgv","high"
"2","17","free","220","111","115","yellow-31","yellow","758","sampling-task","34","3063386","0.0-5.0-0.26-0.26","72","jqcwmlgv","high"
"2","18","free","220","111","103","yellow-169","yellow","822","sampling-task","35","3067777","0.0-5.0-0.27-0.27","72","jqcwmlgv","high"
"2","19","free","220","111","166","yellow-215","yellow","1190","sampling-task","36","3072178","0.0-5.0-0.28-0.28","72","jqcwmlgv","high"
"2","20","free","220","111","111","yellow-123","yellow","910","sampling-task","37","3074433","0.0-5.0-0.29-0.29","72","jqcwmlgv","high"
"2","21","free","220","111","89","yellow-136","yellow","1550","sampling-task","38","3077690","0.0-5.0-0.30-0.30","72","jqcwmlgv","high"
"3","1","fixed","5","96","94","orange-98","orange","6602","sampling-task","41","3123183","0.0-5.0-0.31-0.31","72","jqcwmlgv","high"
"3","2","fixed","5","96","65","orange-30","orange","1502","sampling-task","42","3125911","0.0-5.0-0.32-0.32","72","jqcwmlgv","high"
"3","3","fixed","5","96","84","orange-50","orange","951","sampling-task","43","3128887","0.0-5.0-0.33-0.33","72","jqcwmlgv","high"
"3","4","fixed","5","96","44","orange-87","orange","927","sampling-task","44","3130943","0.0-5.0-0.34-0.34","72","jqcwmlgv","high"
"3","5","fixed","5","96","87","orange-90","orange","829","sampling-task","45","3133543","0.0-5.0-0.35-0.35","72","jqcwmlgv","high"
"4","1","free","220","14","35","green-100","green","3364","sampling-task","48","3198181","0.0-5.0-0.36-0.36","72","jqcwmlgv","high"
"4","2","free","220","14","28","green-3","green","910","sampling-task","49","3200557","0.0-5.0-0.37-0.37","72","jqcwmlgv","high"
"4","3","free","220","14","30","green-140","green","902","sampling-task","50","3203948","0.0-5.0-0.38-0.38","72","jqcwmlgv","high"
"4","4","free","220","14","27","green-50","green","734","sampling-task","51","3205852","0.0-5.0-0.39-0.39","72","jqcwmlgv","high"
"4","5","free","220","14","47","green-74","green","4342","sampling-task","52","3211437","0.0-5.0-0.40-0.40","72","jqcwmlgv","high"
"4","6","free","220","14","4","green-81","green","1134","sampling-task","53","3215437","0.0-5.0-0.41-0.41","72","jqcwmlgv","high"
"4","7","free","220","14","10","green-121","green","1006","sampling-task","54","3217604","0.0-5.0-0.42-0.42","72","jqcwmlgv","high"
"4","8","free","220","14","1","green-23","green","2615","sampling-task","55","3221836","0.0-5.0-0.43-0.43","72","jqcwmlgv","high"
"4","9","free","220","14","20","green-39","green","3358","sampling-task","56","3227196","0.0-5.0-0.44-0.44","72","jqcwmlgv","high"
"4","10","free","220","14","35","green-139","green","4542","sampling-task","57","3233245","0.0-5.0-0.45-0.45","72","jqcwmlgv","high"
"4","11","free","220","14","-9","green-49","green","8174","sampling-task","58","3244524","0.0-5.0-0.46-0.46","72","jqcwmlgv","high"
"4","12","free","220","14","-7","green-77","green","1310","sampling-task","59","3247793","0.0-5.0-0.47-0.47","72","jqcwmlgv","high"
"4","13","free","220","14","28","green-190","green","1055","sampling-task","60","3250161","0.0-5.0-0.48-0.48","72","jqcwmlgv","high"
"4","14","free","220","14","31","green-193","green","894","sampling-task","61","3252233","0.0-5.0-0.49-0.49","72","jqcwmlgv","high"
"4","15","free","220","14","23","green-7","green","926","sampling-task","62","3254409","0.0-5.0-0.50-0.50","72","jqcwmlgv","high"
"4","16","free","220","14","-20","green-176","green","814","sampling-task","63","3263945","0.0-5.0-0.51-0.51","72","jqcwmlgv","high"
"4","17","free","220","14","8","green-53","green","2382","sampling-task","64","3267569","0.0-5.0-0.52-0.52","72","jqcwmlgv","high"
"4","18","free","220","14","14","green-40","green","750","sampling-task","65","3270961","0.0-5.0-0.53-0.53","72","jqcwmlgv","high"
"4","19","free","220","14","26","green-79","green","782","sampling-task","66","3274497","0.0-5.0-0.54-0.54","72","jqcwmlgv","high"
"4","20","free","220","14","-12","green-170","green","1398","sampling-task","67","3277753","0.0-5.0-0.55-0.55","72","jqcwmlgv","high"
"4","21","free","220","14","-6","green-140","green","1822","sampling-task","68","3280954","0.0-5.0-0.56-0.56","72","jqcwmlgv","high"
"4","22","free","220","14","14","green-75","green","798","sampling-task","69","3282633","0.0-5.0-0.57-0.57","72","jqcwmlgv","high"
"4","23","free","220","14","-9","green-11","green","630","sampling-task","70","3286769","0.0-5.0-0.58-0.58","72","jqcwmlgv","high"
"4","24","free","220","14","16","green-86","green","750","sampling-task","71","3288561","0.0-5.0-0.59-0.59","72","jqcwmlgv","high"
"4","25","free","220","14","-3","green-8","green","566","sampling-task","72","3291817","0.0-5.0-0.60-0.60","72","jqcwmlgv","high"
"4","26","free","220","14","8","green-54","green","566","sampling-task","73","3295217","0.0-5.0-0.61-0.61","72","jqcwmlgv","high"
"4","27","free","220","14","46","green-80","green","686","sampling-task","74","3296857","0.0-5.0-0.62-0.62","72","jqcwmlgv","high"
"4","28","free","220","14","29","green-158","green","1758","sampling-task","75","3300890","0.0-5.0-0.63-0.63","72","jqcwmlgv","high"
"4","29","free","220","14","31","green-144","green","702","sampling-task","76","3304537","0.0-5.0-0.64-0.64","72","jqcwmlgv","high"
"4","30","free","220","14","-9","green-65","green","742","sampling-task","77","3307399","0.0-5.0-0.65-0.65","72","jqcwmlgv","high"
"4","31","free","220","14","1","green-30","green","877","sampling-task","78","3309535","0.0-5.0-0.66-0.66","72","jqcwmlgv","high"
"4","32","free","220","14","8","green-40","green","805","sampling-task","79","3311519","0.0-5.0-0.67-0.67","72","jqcwmlgv","high"
"4","33","free","220","14","-5","green-57","green","806","sampling-task","80","3316327","0.0-5.0-0.68-0.68","72","jqcwmlgv","high"
"4","34","free","220","14","22","green-213","green","606","sampling-task","81","3318311","0.0-5.0-0.69-0.69","72","jqcwmlgv","high"
"4","35","free","220","14","46","green-168","green","4662","sampling-task","82","3326831","0.0-5.0-0.70-0.70","72","jqcwmlgv","high"
"4","36","free","220","14","2","green-77","green","733","sampling-task","83","3329015","0.0-5.0-0.71-0.71","72","jqcwmlgv","high"
"4","37","free","220","14","27","green-85","green","16694","sampling-task","84","3347207","0.0-5.0-0.72-0.72","72","jqcwmlgv","high"
"4","38","free","220","14","19","green-175","green","1061","sampling-task","85","3349951","0.0-5.0-0.73-0.73","72","jqcwmlgv","high"
"4","39","free","220","14","34","green-139","green","2223","sampling-task","86","3353247","0.0-5.0-0.74-0.74","72","jqcwmlgv","high"
"4","40","free","220","14","-2","green-106","green","2101","sampling-task","87","3356447","0.0-5.0-0.75-0.75","72","jqcwmlgv","high"
"4","41","free","220","14","19","green-96","green","1927","sampling-task","88","3359431","0.0-5.0-0.76-0.76","72","jqcwmlgv","high"
"4","42","free","220","14","17","green-66","green","1262","sampling-task","89","3362215","0.0-5.0-0.77-0.77","72","jqcwmlgv","high"
"4","43","free","220","14","30","green-178","green","709","sampling-task","90","3364151","0.0-5.0-0.78-0.78","72","jqcwmlgv","high"
"4","44","free","220","14","12","green-211","green","886","sampling-task","91","3366534","0.0-5.0-0.79-0.79","72","jqcwmlgv","high"
"4","45","free","220","14","-43","green-120","green","646","sampling-task","92","3380463","0.0-5.0-0.80-0.80","72","jqcwmlgv","high"
"4","46","free","220","14","-7","green-137","green","1228","sampling-task","93","3382758","0.0-5.0-0.81-0.81","72","jqcwmlgv","high"
"4","47","free","220","14","-7","green-72","green","950","sampling-task","94","3384950","0.0-5.0-0.82-0.82","72","jqcwmlgv","high"
"4","48","free","220","14","15","green-136","green","1758","sampling-task","95","3387879","0.0-5.0-0.83-0.83","72","jqcwmlgv","high"
"4","49","free","220","14","19","green-73","green","878","sampling-task","96","3389615","0.0-5.0-0.84-0.84","72","jqcwmlgv","high"
"4","50","free","220","14","7","green-92","green","1406","sampling-task","97","3392158","0.0-5.0-0.85-0.85","72","jqcwmlgv","high"
"5","1","fixed","20","50","49","purple-133","purple","5873","sampling-task","100","3432419","0.0-5.0-0.86-0.86","72","jqcwmlgv","high"
"5","2","fixed","20","50","52","purple-103","purple","2494","sampling-task","101","3436499","0.0-5.0-0.87-0.87","72","jqcwmlgv","high"
"5","3","fixed","20","50","54","purple-127","purple","2190","sampling-task","102","3440139","0.0-5.0-0.88-0.88","72","jqcwmlgv","high"
"5","4","fixed","20","50","30","purple-202","purple","1679","sampling-task","103","3443331","0.0-5.0-0.89-0.89","72","jqcwmlgv","high"
"5","5","fixed","20","50","51","purple-70","purple","1470","sampling-task","104","3448971","0.0-5.0-0.90-0.90","72","jqcwmlgv","high"
"5","6","fixed","20","50","29","purple-179","purple","1502","sampling-task","105","3452867","0.0-5.0-0.91-0.91","72","jqcwmlgv","high"
"5","7","fixed","20","50","25","purple-125","purple","1014","sampling-task","106","3454947","0.0-5.0-0.92-0.92","72","jqcwmlgv","high"
"5","8","fixed","20","50","65","purple-67","purple","2430","sampling-task","107","3458819","0.0-5.0-0.93-0.93","72","jqcwmlgv","high"
"5","9","fixed","20","50","95","purple-1","purple","1518","sampling-task","108","3463387","0.0-5.0-0.94-0.94","72","jqcwmlgv","high"
"5","10","fixed","20","50","56","purple-117","purple","1110","sampling-task","109","3465739","0.0-5.0-0.95-0.95","72","jqcwmlgv","high"
"5","11","fixed","20","50","42","purple-84","purple","2014","sampling-task","110","3469587","0.0-5.0-0.96-0.96","72","jqcwmlgv","high"
"5","12","fixed","20","50","42","purple-20","purple","1174","sampling-task","111","3471859","0.0-5.0-0.97-0.97","72","jqcwmlgv","high"
"5","13","fixed","20","50","68","purple-45","purple","654","sampling-task","112","3479163","0.0-5.0-0.98-0.98","72","jqcwmlgv","high"
"5","14","fixed","20","50","50","purple-110","purple","990","sampling-task","113","3481491","0.0-5.0-0.99-0.99","72","jqcwmlgv","high"
"5","15","fixed","20","50","42","purple-52","purple","1286","sampling-task","114","3485891","0.0-5.0-0.100-0.100","72","jqcwmlgv","high"
"5","16","fixed","20","50","31","purple-106","purple","1939","sampling-task","115","3490521","0.0-5.0-0.101-0.101","72","jqcwmlgv","high"
"5","17","fixed","20","50","54","purple-204","purple","1366","sampling-task","116","3494457","0.0-5.0-0.102-0.102","72","jqcwmlgv","high"
"5","18","fixed","20","50","26","purple-84","purple","16469","sampling-task","117","3512537","0.0-5.0-0.103-0.103","72","jqcwmlgv","high"
"5","19","fixed","20","50","59","purple-186","purple","1430","sampling-task","118","3516104","0.0-5.0-0.104-0.104","72","jqcwmlgv","high"
"5","20","fixed","20","50","63","purple-165","purple","829","sampling-task","119","3518441","0.0-5.0-0.105-0.105","72","jqcwmlgv","high"
"6","1","free","220","31","42","red-118","red","6205","sampling-task","122","3554175","0.0-5.0-0.106-0.106","72","jqcwmlgv","high"
"6","2","free","220","31","41","red-187","red","2077","sampling-task","123","3558006","0.0-5.0-0.107-0.107","72","jqcwmlgv","high"
"6","3","free","220","31","57","red-164","red","958","sampling-task","124","3561039","0.0-5.0-0.108-0.108","72","jqcwmlgv","high"
"6","4","free","220","31","4","red-176","red","1070","sampling-task","125","3564647","0.0-5.0-0.109-0.109","72","jqcwmlgv","high"
"6","5","free","220","31","45","red-9","red","957","sampling-task","126","3566822","0.0-5.0-0.110-0.110","72","jqcwmlgv","high"
"6","6","free","220","31","27","red-212","red","790","sampling-task","127","3569198","0.0-5.0-0.111-0.111","72","jqcwmlgv","high"
"6","7","free","220","31","41","red-61","red","702","sampling-task","128","3571111","0.0-5.0-0.112-0.112","72","jqcwmlgv","high"
"6","8","free","220","31","25","red-182","red","701","sampling-task","129","3573631","0.0-5.0-0.113-0.113","72","jqcwmlgv","high"
"6","9","free","220","31","56","red-163","red","718","sampling-task","130","3575303","0.0-5.0-0.114-0.114","72","jqcwmlgv","high"
"6","10","free","220","31","17","red-73","red","686","sampling-task","131","3579223","0.0-5.0-0.115-0.115","72","jqcwmlgv","high"
"6","11","free","220","31","47","red-138","red","837","sampling-task","132","3581310","0.0-5.0-0.116-0.116","72","jqcwmlgv","high"
"6","12","free","220","31","14","red-41","red","982","sampling-task","133","3586783","0.0-5.0-0.117-0.117","72","jqcwmlgv","high"
"6","13","free","220","31","31","red-25","red","1069","sampling-task","134","3589287","0.0-5.0-0.118-0.118","72","jqcwmlgv","high"
"6","14","free","220","31","33","red-122","red","892","sampling-task","135","3591103","0.0-5.0-0.119-0.119","72","jqcwmlgv","high"
"6","15","free","220","31","-9","red-115","red","1254","sampling-task","136","3593327","0.0-5.0-0.120-0.120","72","jqcwmlgv","high"
"6","16","free","220","31","45","red-77","red","861","sampling-task","137","3598735","0.0-5.0-0.121-0.121","72","jqcwmlgv","high"
"6","17","free","220","31","32","red-86","red","725","sampling-task","138","3602255","0.0-5.0-0.122-0.122","72","jqcwmlgv","high"
"6","18","free","220","31","-6","red-132","red","638","sampling-task","139","3605935","0.0-5.0-0.123-0.123","72","jqcwmlgv","high"
"6","19","free","220","31","26","red-27","red","700","sampling-task","140","3613342","0.0-5.0-0.124-0.124","72","jqcwmlgv","high"
"6","20","free","220","31","36","red-42","red","686","sampling-task","141","3618094","0.0-5.0-0.125-0.125","72","jqcwmlgv","high"
"6","21","free","220","31","34","red-111","red","1006","sampling-task","142","3621046","0.0-5.0-0.126-0.126","72","jqcwmlgv","high"
"6","22","free","220","31","21","red-103","red","1693","sampling-task","143","3624422","0.0-5.0-0.127-0.127","72","jqcwmlgv","high"
"6","23","free","220","31","37","red-165","red","1469","sampling-task","144","3626982","0.0-5.0-0.128-0.128","72","jqcwmlgv","high"
"6","24","free","220","31","46","red-33","red","2317","sampling-task","145","3630326","0.0-5.0-0.129-0.129","72","jqcwmlgv","high"
"6","25","free","220","31","12","red-195","red","3773","sampling-task","146","3638462","0.0-5.0-0.130-0.130","72","jqcwmlgv","high"
"6","26","free","220","31","5","red-74","red","894","sampling-task","147","3640838","0.0-5.0-0.131-0.131","72","jqcwmlgv","high"
"6","27","free","220","31","77","red-179","red","1613","sampling-task","148","3647422","0.0-5.0-0.132-0.132","72","jqcwmlgv","high"
"6","28","free","220","31","42","red-46","red","734","sampling-task","149","3649382","0.0-5.0-0.133-0.133","72","jqcwmlgv","high"
"6","29","free","220","31","39","red-33","red","662","sampling-task","150","3651406","0.0-5.0-0.134-0.134","72","jqcwmlgv","high"
"6","30","free","220","31","31","red-29","red","837","sampling-task","151","3654030","0.0-5.0-0.135-0.135","72","jqcwmlgv","high"
"6","31","free","220","31","54","red-48","red","1717","sampling-task","152","3658190","0.0-5.0-0.136-0.136","72","jqcwmlgv","high"
"6","32","free","220","31","34","red-110","red","1326","sampling-task","153","3660702","0.0-5.0-0.137-0.137","72","jqcwmlgv","high"
"6","33","free","220","31","24","red-57","red","1141","sampling-task","154","3662886","0.0-5.0-0.138-0.138","72","jqcwmlgv","high"
"6","34","free","220","31","5","red-68","red","622","sampling-task","155","3665342","0.0-5.0-0.139-0.139","72","jqcwmlgv","high"
