"round_number","sample_number","sampling_type","nSamples","mean","feedback","stimulus","stimulus_colour","rt","trial_type","trial_index","time_elapsed","internal_node_id","participant","randomID","condition"
"1","1","fixed","10","110","102","red-108","red","6518","sampling-task","6","236067","0.0-5.0-0.0-0.0","36","prlq4fpk","low"
"1","2","fixed","10","110","121","red-108","red","1942","sampling-task","7","240155","0.0-5.0-0.1-0.1","36","prlq4fpk","low"
"1","3","fixed","10","110","153","red-108","red","1253","sampling-task","8","245139","0.0-5.0-0.2-0.2","36","prlq4fpk","low"
"1","4","fixed","10","110","104","red-108","red","1375","sampling-task","9","248035","0.0-5.0-0.3-0.3","36","prlq4fpk","low"
"1","5","fixed","10","110","107","red-108","red","1158","sampling-task","10","250523","0.0-5.0-0.4-0.4","36","prlq4fpk","low"
"1","6","fixed","10","110","130","red-108","red","1102","sampling-task","11","252811","0.0-5.0-0.5-0.5","36","prlq4fpk","low"
"1","7","fixed","10","110","133","red-108","red","1022","sampling-task","12","255075","0.0-5.0-0.6-0.6","36","prlq4fpk","low"
"1","8","fixed","10","110","97","red-108","red","846","sampling-task","13","257443","0.0-5.0-0.7-0.7","36","prlq4fpk","low"
"1","9","fixed","10","110","133","red-108","red","767","sampling-task","14","259539","0.0-5.0-0.8-0.8","36","prlq4fpk","low"
"1","10","fixed","10","110","106","red-108","red","894","sampling-task","15","264699","0.0-5.0-0.9-0.9","36","prlq4fpk","low"
"2","1","free","220","13","-17","yellow-191","yellow","12652","sampling-task","18","351370","0.0-5.0-0.10-0.10","36","prlq4fpk","low"
"2","2","free","220","13","49","yellow-191","yellow","2534","sampling-task","19","355922","0.0-5.0-0.11-0.11","36","prlq4fpk","low"
"2","3","free","220","13","44","yellow-191","yellow","966","sampling-task","20","358378","0.0-5.0-0.12-0.12","36","prlq4fpk","low"
"2","4","free","220","13","0","yellow-191","yellow","734","sampling-task","21","360386","0.0-5.0-0.13-0.13","36","prlq4fpk","low"
"2","5","free","220","13","13","yellow-191","yellow","702","sampling-task","22","362482","0.0-5.0-0.14-0.14","36","prlq4fpk","low"
"2","6","free","220","13","55","yellow-191","yellow","590","sampling-task","23","365530","0.0-5.0-0.15-0.15","36","prlq4fpk","low"
"2","7","free","220","13","17","yellow-191","yellow","534","sampling-task","24","367714","0.0-5.0-0.16-0.16","36","prlq4fpk","low"
"2","8","free","220","13","-8","yellow-191","yellow","598","sampling-task","25","369794","0.0-5.0-0.17-0.17","36","prlq4fpk","low"
"2","9","free","220","13","-19","yellow-191","yellow","581","sampling-task","26","371762","0.0-5.0-0.18-0.18","36","prlq4fpk","low"
"2","10","free","220","13","12","yellow-191","yellow","534","sampling-task","27","374250","0.0-5.0-0.19-0.19","36","prlq4fpk","low"
"2","11","free","220","13","10","yellow-191","yellow","518","sampling-task","28","376161","0.0-5.0-0.20-0.20","36","prlq4fpk","low"
"2","12","free","220","13","34","yellow-191","yellow","462","sampling-task","29","378122","0.0-5.0-0.21-0.21","36","prlq4fpk","low"
"2","13","free","220","13","1","yellow-191","yellow","486","sampling-task","30","379962","0.0-5.0-0.22-0.22","36","prlq4fpk","low"
"2","14","free","220","13","38","yellow-191","yellow","510","sampling-task","31","381842","0.0-5.0-0.23-0.23","36","prlq4fpk","low"
"2","15","free","220","13","44","yellow-191","yellow","558","sampling-task","32","383794","0.0-5.0-0.24-0.24","36","prlq4fpk","low"
"2","16","free","220","13","28","yellow-191","yellow","510","sampling-task","33","385626","0.0-5.0-0.25-0.25","36","prlq4fpk","low"
"2","17","free","220","13","14","yellow-191","yellow","454","sampling-task","34","387338","0.0-5.0-0.26-0.26","36","prlq4fpk","low"
"2","18","free","220","13","23","yellow-191","yellow","470","sampling-task","35","388929","0.0-5.0-0.27-0.27","36","prlq4fpk","low"
"2","19","free","220","13","42","yellow-191","yellow","454","sampling-task","36","390865","0.0-5.0-0.28-0.28","36","prlq4fpk","low"
"2","20","free","220","13","20","yellow-191","yellow","446","sampling-task","37","392954","0.0-5.0-0.29-0.29","36","prlq4fpk","low"
"2","21","free","220","13","26","yellow-191","yellow","438","sampling-task","38","394442","0.0-5.0-0.30-0.30","36","prlq4fpk","low"
"2","22","free","220","13","22","yellow-191","yellow","454","sampling-task","39","396209","0.0-5.0-0.31-0.31","36","prlq4fpk","low"
"2","23","free","220","13","15","yellow-191","yellow","543","sampling-task","40","398161","0.0-5.0-0.32-0.32","36","prlq4fpk","low"
"2","24","free","220","13","31","yellow-191","yellow","670","sampling-task","41","400034","0.0-5.0-0.33-0.33","36","prlq4fpk","low"
"2","25","free","220","13","9","yellow-191","yellow","574","sampling-task","42","401826","0.0-5.0-0.34-0.34","36","prlq4fpk","low"
"2","26","free","220","13","27","yellow-191","yellow","718","sampling-task","43","403834","0.0-5.0-0.35-0.35","36","prlq4fpk","low"
"2","27","free","220","13","-15","yellow-191","yellow","462","sampling-task","44","405771","0.0-5.0-0.36-0.36","36","prlq4fpk","low"
"2","28","free","220","13","21","yellow-191","yellow","661","sampling-task","45","408010","0.0-5.0-0.37-0.37","36","prlq4fpk","low"
"2","29","free","220","13","33","yellow-191","yellow","1094","sampling-task","46","410424","0.0-5.0-0.38-0.38","36","prlq4fpk","low"
"2","30","free","220","13","9","yellow-191","yellow","486","sampling-task","47","412024","0.0-5.0-0.39-0.39","36","prlq4fpk","low"
"2","31","free","220","13","12","yellow-191","yellow","421","sampling-task","48","413456","0.0-5.0-0.40-0.40","36","prlq4fpk","low"
"2","32","free","220","13","33","yellow-191","yellow","414","sampling-task","49","415376","0.0-5.0-0.41-0.41","36","prlq4fpk","low"
"2","33","free","220","13","3","yellow-191","yellow","414","sampling-task","50","416745","0.0-5.0-0.42-0.42","36","prlq4fpk","low"
"2","34","free","220","13","2","yellow-191","yellow","413","sampling-task","51","418257","0.0-5.0-0.43-0.43","36","prlq4fpk","low"
"2","35","free","220","13","3","yellow-191","yellow","414","sampling-task","52","420224","0.0-5.0-0.44-0.44","36","prlq4fpk","low"
"2","36","free","220","13","2","yellow-191","yellow","598","sampling-task","53","422704","0.0-5.0-0.45-0.45","36","prlq4fpk","low"
"2","37","free","220","13","-7","yellow-191","yellow","574","sampling-task","54","424608","0.0-5.0-0.46-0.46","36","prlq4fpk","low"
"2","38","free","220","13","15","yellow-191","yellow","494","sampling-task","55","426680","0.0-5.0-0.47-0.47","36","prlq4fpk","low"
"2","39","free","220","13","33","yellow-191","yellow","774","sampling-task","56","430248","0.0-5.0-0.48-0.48","36","prlq4fpk","low"
"3","1","fixed","20","92","101","purple-124","purple","2220","sampling-task","59","489384","0.0-5.0-0.49-0.49","36","prlq4fpk","low"
"3","2","fixed","20","92","66","purple-124","purple","822","sampling-task","60","491504","0.0-5.0-0.50-0.50","36","prlq4fpk","low"
"3","3","fixed","20","92","86","purple-124","purple","622","sampling-task","61","493800","0.0-5.0-0.51-0.51","36","prlq4fpk","low"
"3","4","fixed","20","92","71","purple-124","purple","645","sampling-task","62","496432","0.0-5.0-0.52-0.52","36","prlq4fpk","low"
"3","5","fixed","20","92","102","purple-124","purple","645","sampling-task","63","499504","0.0-5.0-0.53-0.53","36","prlq4fpk","low"
"3","6","fixed","20","92","83","purple-124","purple","597","sampling-task","64","501808","0.0-5.0-0.54-0.54","36","prlq4fpk","low"
"3","7","fixed","20","92","50","purple-124","purple","582","sampling-task","65","503888","0.0-5.0-0.55-0.55","36","prlq4fpk","low"
"3","8","fixed","20","92","132","purple-124","purple","613","sampling-task","66","505824","0.0-5.0-0.56-0.56","36","prlq4fpk","low"
"3","9","fixed","20","92","113","purple-124","purple","733","sampling-task","67","507680","0.0-5.0-0.57-0.57","36","prlq4fpk","low"
"3","10","fixed","20","92","91","purple-124","purple","645","sampling-task","68","511160","0.0-5.0-0.58-0.58","36","prlq4fpk","low"
"3","11","fixed","20","92","106","purple-124","purple","710","sampling-task","69","513480","0.0-5.0-0.59-0.59","36","prlq4fpk","low"
"3","12","fixed","20","92","81","purple-124","purple","742","sampling-task","70","515488","0.0-5.0-0.60-0.60","36","prlq4fpk","low"
"3","13","fixed","20","92","60","purple-124","purple","558","sampling-task","71","517648","0.0-5.0-0.61-0.61","36","prlq4fpk","low"
"3","14","fixed","20","92","112","purple-124","purple","1526","sampling-task","72","520208","0.0-5.0-0.62-0.62","36","prlq4fpk","low"
"3","15","fixed","20","92","77","purple-124","purple","733","sampling-task","73","522232","0.0-5.0-0.63-0.63","36","prlq4fpk","low"
"3","16","fixed","20","92","37","purple-124","purple","766","sampling-task","74","524392","0.0-5.0-0.64-0.64","36","prlq4fpk","low"
"3","17","fixed","20","92","115","purple-124","purple","750","sampling-task","75","526176","0.0-5.0-0.65-0.65","36","prlq4fpk","low"
"3","18","fixed","20","92","88","purple-124","purple","653","sampling-task","76","527824","0.0-5.0-0.66-0.66","36","prlq4fpk","low"
"3","19","fixed","20","92","87","purple-124","purple","693","sampling-task","77","529576","0.0-5.0-0.67-0.67","36","prlq4fpk","low"
"3","20","fixed","20","92","90","purple-124","purple","533","sampling-task","78","531287","0.0-5.0-0.68-0.68","36","prlq4fpk","low"
"4","1","free","220","34","16","orange-72","orange","2276","sampling-task","81","557415","0.0-5.0-0.69-0.69","36","prlq4fpk","low"
"4","2","free","220","34","33","orange-72","orange","414","sampling-task","82","559119","0.0-5.0-0.70-0.70","36","prlq4fpk","low"
"4","3","free","220","34","0","orange-72","orange","453","sampling-task","83","560935","0.0-5.0-0.71-0.71","36","prlq4fpk","low"
"4","4","free","220","34","6","orange-72","orange","469","sampling-task","84","563079","0.0-5.0-0.72-0.72","36","prlq4fpk","low"
"4","5","free","220","34","-15","orange-72","orange","511","sampling-task","85","565079","0.0-5.0-0.73-0.73","36","prlq4fpk","low"
"4","6","free","220","34","30","orange-72","orange","517","sampling-task","86","566951","0.0-5.0-0.74-0.74","36","prlq4fpk","low"
"4","7","free","220","34","47","orange-72","orange","509","sampling-task","87","568911","0.0-5.0-0.75-0.75","36","prlq4fpk","low"
"4","8","free","220","34","6","orange-72","orange","613","sampling-task","88","571431","0.0-5.0-0.76-0.76","36","prlq4fpk","low"
"4","9","free","220","34","29","orange-72","orange","718","sampling-task","89","573999","0.0-5.0-0.77-0.77","36","prlq4fpk","low"
"4","10","free","220","34","49","orange-72","orange","453","sampling-task","90","575615","0.0-5.0-0.78-0.78","36","prlq4fpk","low"
"4","11","free","220","34","39","orange-72","orange","445","sampling-task","91","577151","0.0-5.0-0.79-0.79","36","prlq4fpk","low"
"4","12","free","220","34","62","orange-72","orange","437","sampling-task","92","578887","0.0-5.0-0.80-0.80","36","prlq4fpk","low"
"4","13","free","220","34","50","orange-72","orange","358","sampling-task","93","580175","0.0-5.0-0.81-0.81","36","prlq4fpk","low"
"4","14","free","220","34","-28","orange-72","orange","558","sampling-task","94","582647","0.0-5.0-0.82-0.82","36","prlq4fpk","low"
"4","15","free","220","34","57","orange-72","orange","574","sampling-task","95","584447","0.0-5.0-0.83-0.83","36","prlq4fpk","low"
"4","16","free","220","34","15","orange-72","orange","454","sampling-task","96","586583","0.0-5.0-0.84-0.84","36","prlq4fpk","low"
"4","17","free","220","34","28","orange-72","orange","438","sampling-task","97","588527","0.0-5.0-0.85-0.85","36","prlq4fpk","low"
"4","18","free","220","34","-7","orange-72","orange","549","sampling-task","98","590279","0.0-5.0-0.86-0.86","36","prlq4fpk","low"
"4","19","free","220","34","13","orange-72","orange","590","sampling-task","99","591991","0.0-5.0-0.87-0.87","36","prlq4fpk","low"
"4","20","free","220","34","19","orange-72","orange","1765","sampling-task","100","595647","0.0-5.0-0.88-0.88","36","prlq4fpk","low"
"5","1","fixed","5","55","85","green-179","green","2748","sampling-task","103","621495","0.0-5.0-0.89-0.89","36","prlq4fpk","low"
"5","2","fixed","5","55","51","green-179","green","461","sampling-task","104","623575","0.0-5.0-0.90-0.90","36","prlq4fpk","low"
"5","3","fixed","5","55","54","green-179","green","478","sampling-task","105","625111","0.0-5.0-0.91-0.91","36","prlq4fpk","low"
"5","4","fixed","5","55","54","green-179","green","694","sampling-task","106","626815","0.0-5.0-0.92-0.92","36","prlq4fpk","low"
"5","5","fixed","5","55","97","green-179","green","438","sampling-task","107","628367","0.0-5.0-0.93-0.93","36","prlq4fpk","low"
"6","1","free","220","76","84","blue-84","blue","1636","sampling-task","110","649311","0.0-5.0-0.94-0.94","36","prlq4fpk","low"
"6","2","free","220","76","101","blue-84","blue","365","sampling-task","111","650790","0.0-5.0-0.95-0.95","36","prlq4fpk","low"
"6","3","free","220","76","91","blue-84","blue","373","sampling-task","112","652174","0.0-5.0-0.96-0.96","36","prlq4fpk","low"
"6","4","free","220","76","62","blue-84","blue","405","sampling-task","113","653494","0.0-5.0-0.97-0.97","36","prlq4fpk","low"
"6","5","free","220","76","60","blue-84","blue","404","sampling-task","114","655054","0.0-5.0-0.98-0.98","36","prlq4fpk","low"
"6","6","free","220","76","94","blue-84","blue","381","sampling-task","115","656550","0.0-5.0-0.99-0.99","36","prlq4fpk","low"
"6","7","free","220","76","52","blue-84","blue","358","sampling-task","116","657990","0.0-5.0-0.100-0.100","36","prlq4fpk","low"
"6","8","free","220","76","73","blue-84","blue","349","sampling-task","117","659398","0.0-5.0-0.101-0.101","36","prlq4fpk","low"
"6","9","free","220","76","61","blue-84","blue","365","sampling-task","118","660878","0.0-5.0-0.102-0.102","36","prlq4fpk","low"
"6","10","free","220","76","88","blue-84","blue","374","sampling-task","119","662990","0.0-5.0-0.103-0.103","36","prlq4fpk","low"
"6","11","free","220","76","79","blue-84","blue","413","sampling-task","120","666414","0.0-5.0-0.104-0.104","36","prlq4fpk","low"
"6","12","free","220","76","46","blue-84","blue","718","sampling-task","121","669014","0.0-5.0-0.105-0.105","36","prlq4fpk","low"
"6","13","free","220","76","84","blue-84","blue","973","sampling-task","122","671238","0.0-5.0-0.106-0.106","36","prlq4fpk","low"
"6","14","free","220","76","47","blue-84","blue","445","sampling-task","123","672838","0.0-5.0-0.107-0.107","36","prlq4fpk","low"
"6","15","free","220","76","74","blue-84","blue","357","sampling-task","124","676214","0.0-5.0-0.108-0.108","36","prlq4fpk","low"
"6","16","free","220","76","92","blue-84","blue","485","sampling-task","125","677878","0.0-5.0-0.109-0.109","36","prlq4fpk","low"
"6","17","free","220","76","96","blue-84","blue","358","sampling-task","126","679518","0.0-5.0-0.110-0.110","36","prlq4fpk","low"
"6","18","free","220","76","35","blue-84","blue","374","sampling-task","127","681038","0.0-5.0-0.111-0.111","36","prlq4fpk","low"
"6","19","free","220","76","76","blue-84","blue","381","sampling-task","128","682670","0.0-5.0-0.112-0.112","36","prlq4fpk","low"
"6","20","free","220","76","65","blue-84","blue","349","sampling-task","129","684126","0.0-5.0-0.113-0.113","36","prlq4fpk","low"
"6","21","free","220","76","78","blue-84","blue","1381","sampling-task","130","687174","0.0-5.0-0.114-0.114","36","prlq4fpk","low"
