"round_number","sample_number","sampling_type","nSamples","mean","feedback","stimulus","stimulus_colour","rt","trial_type","trial_index","time_elapsed","internal_node_id","participant","randomID","condition"
"1","1","fixed","5","110","112","green-81","green","6615","sampling-task","6","341009","0.0-5.0-0.0-0.0","14","5qg8t4z2","low"
"1","2","fixed","5","110","97","green-81","green","2254","sampling-task","7","349839","0.0-5.0-0.1-0.1","14","5qg8t4z2","low"
"1","3","fixed","5","110","111","green-81","green","1206","sampling-task","8","353871","0.0-5.0-0.2-0.2","14","5qg8t4z2","low"
"1","4","fixed","5","110","123","green-81","green","1030","sampling-task","9","359344","0.0-5.0-0.3-0.3","14","5qg8t4z2","low"
"1","5","fixed","5","110","88","green-81","green","1078","sampling-task","10","367807","0.0-5.0-0.4-0.4","14","5qg8t4z2","low"
"2","1","free","220","35","39","blue-128","blue","3421","sampling-task","13","436239","0.0-5.0-0.5-0.5","14","5qg8t4z2","low"
"2","2","free","220","35","46","blue-128","blue","558","sampling-task","14","439311","0.0-5.0-0.6-0.6","14","5qg8t4z2","low"
"2","3","free","220","35","46","blue-128","blue","518","sampling-task","15","441183","0.0-5.0-0.7-0.7","14","5qg8t4z2","low"
"2","4","free","220","35","36","blue-128","blue","350","sampling-task","16","443191","0.0-5.0-0.8-0.8","14","5qg8t4z2","low"
"2","5","free","220","35","53","blue-128","blue","342","sampling-task","17","445111","0.0-5.0-0.9-0.9","14","5qg8t4z2","low"
"2","6","free","220","35","31","blue-128","blue","406","sampling-task","18","446823","0.0-5.0-0.10-0.10","14","5qg8t4z2","low"
"2","7","free","220","35","24","blue-128","blue","326","sampling-task","19","448423","0.0-5.0-0.11-0.11","14","5qg8t4z2","low"
"2","8","free","220","35","33","blue-128","blue","342","sampling-task","20","449807","0.0-5.0-0.12-0.12","14","5qg8t4z2","low"
"2","9","free","220","35","36","blue-128","blue","318","sampling-task","21","451703","0.0-5.0-0.13-0.13","14","5qg8t4z2","low"
"2","10","free","220","35","67","blue-128","blue","286","sampling-task","22","453760","0.0-5.0-0.14-0.14","14","5qg8t4z2","low"
"2","11","free","220","35","25","blue-128","blue","286","sampling-task","23","454968","0.0-5.0-0.15-0.15","14","5qg8t4z2","low"
"2","12","free","220","35","66","blue-128","blue","278","sampling-task","24","456384","0.0-5.0-0.16-0.16","14","5qg8t4z2","low"
"2","13","free","220","35","47","blue-128","blue","262","sampling-task","25","457792","0.0-5.0-0.17-0.17","14","5qg8t4z2","low"
"2","14","free","220","35","7","blue-128","blue","813","sampling-task","26","459591","0.0-5.0-0.18-0.18","14","5qg8t4z2","low"
"2","15","free","220","35","60","blue-128","blue","254","sampling-task","27","460808","0.0-5.0-0.19-0.19","14","5qg8t4z2","low"
"2","16","free","220","35","42","blue-128","blue","270","sampling-task","28","461951","0.0-5.0-0.20-0.20","14","5qg8t4z2","low"
"2","17","free","220","35","51","blue-128","blue","262","sampling-task","29","463031","0.0-5.0-0.21-0.21","14","5qg8t4z2","low"
"2","18","free","220","35","39","blue-128","blue","278","sampling-task","30","464167","0.0-5.0-0.22-0.22","14","5qg8t4z2","low"
"2","19","free","220","35","86","blue-128","blue","246","sampling-task","31","465246","0.0-5.0-0.23-0.23","14","5qg8t4z2","low"
"2","20","free","220","35","28","blue-128","blue","286","sampling-task","32","466335","0.0-5.0-0.24-0.24","14","5qg8t4z2","low"
"2","21","free","220","35","12","blue-128","blue","278","sampling-task","33","467455","0.0-5.0-0.25-0.25","14","5qg8t4z2","low"
"2","22","free","220","35","50","blue-128","blue","278","sampling-task","34","468559","0.0-5.0-0.26-0.26","14","5qg8t4z2","low"
"2","23","free","220","35","23","blue-128","blue","310","sampling-task","35","469687","0.0-5.0-0.27-0.27","14","5qg8t4z2","low"
"2","24","free","220","35","6","blue-128","blue","262","sampling-task","36","470775","0.0-5.0-0.28-0.28","14","5qg8t4z2","low"
"2","25","free","220","35","48","blue-128","blue","294","sampling-task","37","471871","0.0-5.0-0.29-0.29","14","5qg8t4z2","low"
"2","26","free","220","35","28","blue-128","blue","310","sampling-task","38","472983","0.0-5.0-0.30-0.30","14","5qg8t4z2","low"
"2","27","free","220","35","32","blue-128","blue","278","sampling-task","39","474086","0.0-5.0-0.31-0.31","14","5qg8t4z2","low"
"2","28","free","220","35","44","blue-128","blue","278","sampling-task","40","475143","0.0-5.0-0.32-0.32","14","5qg8t4z2","low"
"2","29","free","220","35","3","blue-128","blue","279","sampling-task","41","476223","0.0-5.0-0.33-0.33","14","5qg8t4z2","low"
"2","30","free","220","35","-17","blue-128","blue","262","sampling-task","42","477343","0.0-5.0-0.34-0.34","14","5qg8t4z2","low"
"2","31","free","220","35","39","blue-128","blue","966","sampling-task","43","479503","0.0-5.0-0.35-0.35","14","5qg8t4z2","low"
"3","1","fixed","20","59","29","purple-94","purple","1965","sampling-task","46","501719","0.0-5.0-0.36-0.36","14","5qg8t4z2","low"
"3","2","fixed","20","59","84","purple-94","purple","373","sampling-task","47","504431","0.0-5.0-0.37-0.37","14","5qg8t4z2","low"
"3","3","fixed","20","59","80","purple-94","purple","421","sampling-task","48","505919","0.0-5.0-0.38-0.38","14","5qg8t4z2","low"
"3","4","fixed","20","59","33","purple-94","purple","382","sampling-task","49","508111","0.0-5.0-0.39-0.39","14","5qg8t4z2","low"
"3","5","fixed","20","59","35","purple-94","purple","550","sampling-task","50","511231","0.0-5.0-0.40-0.40","14","5qg8t4z2","low"
"3","6","fixed","20","59","56","purple-94","purple","454","sampling-task","51","512615","0.0-5.0-0.41-0.41","14","5qg8t4z2","low"
"3","7","fixed","20","59","75","purple-94","purple","838","sampling-task","52","514774","0.0-5.0-0.42-0.42","14","5qg8t4z2","low"
"3","8","fixed","20","59","79","purple-94","purple","518","sampling-task","53","516864","0.0-5.0-0.43-0.43","14","5qg8t4z2","low"
"3","9","fixed","20","59","44","purple-94","purple","388","sampling-task","54","518391","0.0-5.0-0.44-0.44","14","5qg8t4z2","low"
"3","10","fixed","20","59","88","purple-94","purple","342","sampling-task","55","519983","0.0-5.0-0.45-0.45","14","5qg8t4z2","low"
"3","11","fixed","20","59","39","purple-94","purple","702","sampling-task","56","524199","0.0-5.0-0.46-0.46","14","5qg8t4z2","low"
"3","12","fixed","20","59","68","purple-94","purple","646","sampling-task","57","526351","0.0-5.0-0.47-0.47","14","5qg8t4z2","low"
"3","13","fixed","20","59","75","purple-94","purple","366","sampling-task","58","527695","0.0-5.0-0.48-0.48","14","5qg8t4z2","low"
"3","14","fixed","20","59","62","purple-94","purple","375","sampling-task","59","528975","0.0-5.0-0.49-0.49","14","5qg8t4z2","low"
"3","15","fixed","20","59","14","purple-94","purple","670","sampling-task","60","532719","0.0-5.0-0.50-0.50","14","5qg8t4z2","low"
"3","16","fixed","20","59","60","purple-94","purple","382","sampling-task","61","533999","0.0-5.0-0.51-0.51","14","5qg8t4z2","low"
"3","17","fixed","20","59","51","purple-94","purple","398","sampling-task","62","536231","0.0-5.0-0.52-0.52","14","5qg8t4z2","low"
"3","18","fixed","20","59","72","purple-94","purple","294","sampling-task","63","537503","0.0-5.0-0.53-0.53","14","5qg8t4z2","low"
"3","19","fixed","20","59","35","purple-94","purple","390","sampling-task","64","540055","0.0-5.0-0.54-0.54","14","5qg8t4z2","low"
"3","20","fixed","20","59","81","purple-94","purple","374","sampling-task","65","543863","0.0-5.0-0.55-0.55","14","5qg8t4z2","low"
"4","1","free","220","91","78","orange-48","orange","2748","sampling-task","68","590013","0.0-5.0-0.56-0.56","14","5qg8t4z2","low"
"4","2","free","220","91","46","orange-48","orange","565","sampling-task","69","592557","0.0-5.0-0.57-0.57","14","5qg8t4z2","low"
"4","3","free","220","91","102","orange-48","orange","398","sampling-task","70","596509","0.0-5.0-0.58-0.58","14","5qg8t4z2","low"
"4","4","free","220","91","89","orange-48","orange","854","sampling-task","71","598285","0.0-5.0-0.59-0.59","14","5qg8t4z2","low"
"4","5","free","220","91","99","orange-48","orange","366","sampling-task","72","599517","0.0-5.0-0.60-0.60","14","5qg8t4z2","low"
"4","6","free","220","91","91","orange-48","orange","255","sampling-task","73","600629","0.0-5.0-0.61-0.61","14","5qg8t4z2","low"
"4","7","free","220","91","100","orange-48","orange","286","sampling-task","74","601893","0.0-5.0-0.62-0.62","14","5qg8t4z2","low"
"4","8","free","220","91","83","orange-48","orange","350","sampling-task","75","603957","0.0-5.0-0.63-0.63","14","5qg8t4z2","low"
"4","9","free","220","91","66","orange-48","orange","398","sampling-task","76","605301","0.0-5.0-0.64-0.64","14","5qg8t4z2","low"
"4","10","free","220","91","71","orange-48","orange","278","sampling-task","77","606573","0.0-5.0-0.65-0.65","14","5qg8t4z2","low"
"4","11","free","220","91","83","orange-48","orange","333","sampling-task","78","607885","0.0-5.0-0.66-0.66","14","5qg8t4z2","low"
"4","12","free","220","91","69","orange-48","orange","253","sampling-task","79","609077","0.0-5.0-0.67-0.67","14","5qg8t4z2","low"
"4","13","free","220","91","84","orange-48","orange","286","sampling-task","80","610925","0.0-5.0-0.68-0.68","14","5qg8t4z2","low"
"4","14","free","220","91","65","orange-48","orange","630","sampling-task","81","612493","0.0-5.0-0.69-0.69","14","5qg8t4z2","low"
"4","15","free","220","91","62","orange-48","orange","253","sampling-task","82","613557","0.0-5.0-0.70-0.70","14","5qg8t4z2","low"
"4","16","free","220","91","57","orange-48","orange","286","sampling-task","83","614693","0.0-5.0-0.71-0.71","14","5qg8t4z2","low"
"4","17","free","220","91","68","orange-48","orange","278","sampling-task","84","615765","0.0-5.0-0.72-0.72","14","5qg8t4z2","low"
"4","18","free","220","91","111","orange-48","orange","295","sampling-task","85","617085","0.0-5.0-0.73-0.73","14","5qg8t4z2","low"
"4","19","free","220","91","95","orange-48","orange","230","sampling-task","86","618165","0.0-5.0-0.74-0.74","14","5qg8t4z2","low"
"4","20","free","220","91","93","orange-48","orange","269","sampling-task","87","619309","0.0-5.0-0.75-0.75","14","5qg8t4z2","low"
"4","21","free","220","91","69","orange-48","orange","261","sampling-task","88","620397","0.0-5.0-0.76-0.76","14","5qg8t4z2","low"
"4","22","free","220","91","130","orange-48","orange","294","sampling-task","89","621757","0.0-5.0-0.77-0.77","14","5qg8t4z2","low"
"4","23","free","220","91","97","orange-48","orange","237","sampling-task","90","622797","0.0-5.0-0.78-0.78","14","5qg8t4z2","low"
"4","24","free","220","91","64","orange-48","orange","237","sampling-task","91","624029","0.0-5.0-0.79-0.79","14","5qg8t4z2","low"
"4","25","free","220","91","90","orange-48","orange","262","sampling-task","92","625109","0.0-5.0-0.80-0.80","14","5qg8t4z2","low"
"4","26","free","220","91","131","orange-48","orange","421","sampling-task","93","626357","0.0-5.0-0.81-0.81","14","5qg8t4z2","low"
"4","27","free","220","91","86","orange-48","orange","286","sampling-task","94","627437","0.0-5.0-0.82-0.82","14","5qg8t4z2","low"
"4","28","free","220","91","92","orange-48","orange","278","sampling-task","95","628749","0.0-5.0-0.83-0.83","14","5qg8t4z2","low"
"4","29","free","220","91","94","orange-48","orange","278","sampling-task","96","629885","0.0-5.0-0.84-0.84","14","5qg8t4z2","low"
"4","30","free","220","91","69","orange-48","orange","286","sampling-task","97","631365","0.0-5.0-0.85-0.85","14","5qg8t4z2","low"
"5","1","fixed","10","15","10","red-170","red","1660","sampling-task","100","657106","0.0-5.0-0.86-0.86","14","5qg8t4z2","low"
"5","2","fixed","10","15","24","red-170","red","686","sampling-task","101","658746","0.0-5.0-0.87-0.87","14","5qg8t4z2","low"
"5","3","fixed","10","15","9","red-170","red","406","sampling-task","102","661402","0.0-5.0-0.88-0.88","14","5qg8t4z2","low"
"5","4","fixed","10","15","10","red-170","red","445","sampling-task","103","663346","0.0-5.0-0.89-0.89","14","5qg8t4z2","low"
"5","5","fixed","10","15","-37","red-170","red","454","sampling-task","104","664770","0.0-5.0-0.90-0.90","14","5qg8t4z2","low"
"5","6","fixed","10","15","4","red-170","red","310","sampling-task","105","666234","0.0-5.0-0.91-0.91","14","5qg8t4z2","low"
"5","7","fixed","10","15","5","red-170","red","349","sampling-task","106","667482","0.0-5.0-0.92-0.92","14","5qg8t4z2","low"
"5","8","fixed","10","15","10","red-170","red","334","sampling-task","107","668626","0.0-5.0-0.93-0.93","14","5qg8t4z2","low"
"5","9","fixed","10","15","22","red-170","red","405","sampling-task","108","669818","0.0-5.0-0.94-0.94","14","5qg8t4z2","low"
"5","10","fixed","10","15","8","red-170","red","405","sampling-task","109","671114","0.0-5.0-0.95-0.95","14","5qg8t4z2","low"
"6","1","free","220","73","97","yellow-53","yellow","1364","sampling-task","112","692650","0.0-5.0-0.96-0.96","14","5qg8t4z2","low"
"6","2","free","220","73","84","yellow-53","yellow","293","sampling-task","113","693826","0.0-5.0-0.97-0.97","14","5qg8t4z2","low"
"6","3","free","220","73","79","yellow-53","yellow","286","sampling-task","114","694962","0.0-5.0-0.98-0.98","14","5qg8t4z2","low"
"6","4","free","220","73","59","yellow-53","yellow","286","sampling-task","115","696130","0.0-5.0-0.99-0.99","14","5qg8t4z2","low"
"6","5","free","220","73","84","yellow-53","yellow","293","sampling-task","116","697250","0.0-5.0-0.100-0.100","14","5qg8t4z2","low"
"6","6","free","220","73","71","yellow-53","yellow","286","sampling-task","117","698362","0.0-5.0-0.101-0.101","14","5qg8t4z2","low"
"6","7","free","220","73","67","yellow-53","yellow","286","sampling-task","118","699434","0.0-5.0-0.102-0.102","14","5qg8t4z2","low"
"6","8","free","220","73","60","yellow-53","yellow","269","sampling-task","119","700522","0.0-5.0-0.103-0.103","14","5qg8t4z2","low"
"6","9","free","220","73","48","yellow-53","yellow","270","sampling-task","120","701610","0.0-5.0-0.104-0.104","14","5qg8t4z2","low"
"6","10","free","220","73","37","yellow-53","yellow","319","sampling-task","121","702754","0.0-5.0-0.105-0.105","14","5qg8t4z2","low"
"6","11","free","220","73","50","yellow-53","yellow","333","sampling-task","122","703882","0.0-5.0-0.106-0.106","14","5qg8t4z2","low"
"6","12","free","220","73","56","yellow-53","yellow","262","sampling-task","123","704943","0.0-5.0-0.107-0.107","14","5qg8t4z2","low"
"6","13","free","220","73","66","yellow-53","yellow","294","sampling-task","124","706063","0.0-5.0-0.108-0.108","14","5qg8t4z2","low"
"6","14","free","220","73","69","yellow-53","yellow","302","sampling-task","125","707319","0.0-5.0-0.109-0.109","14","5qg8t4z2","low"
"6","15","free","220","73","35","yellow-53","yellow","253","sampling-task","126","709767","0.0-5.0-0.110-0.110","14","5qg8t4z2","low"
"6","16","free","220","73","84","yellow-53","yellow","397","sampling-task","127","711135","0.0-5.0-0.111-0.111","14","5qg8t4z2","low"
"6","17","free","220","73","96","yellow-53","yellow","286","sampling-task","128","712303","0.0-5.0-0.112-0.112","14","5qg8t4z2","low"
"6","18","free","220","73","34","yellow-53","yellow","253","sampling-task","129","713959","0.0-5.0-0.113-0.113","14","5qg8t4z2","low"
"6","19","free","220","73","76","yellow-53","yellow","309","sampling-task","130","716847","0.0-5.0-0.114-0.114","14","5qg8t4z2","low"
"6","20","free","220","73","59","yellow-53","yellow","262","sampling-task","131","718519","0.0-5.0-0.115-0.115","14","5qg8t4z2","low"
"6","21","free","220","73","91","yellow-53","yellow","294","sampling-task","132","719823","0.0-5.0-0.116-0.116","14","5qg8t4z2","low"
"6","22","free","220","73","80","yellow-53","yellow","294","sampling-task","133","721391","0.0-5.0-0.117-0.117","14","5qg8t4z2","low"
"6","23","free","220","73","68","yellow-53","yellow","326","sampling-task","134","725544","0.0-5.0-0.118-0.118","14","5qg8t4z2","low"
"6","24","free","220","73","102","yellow-53","yellow","476","sampling-task","135","727823","0.0-5.0-0.119-0.119","14","5qg8t4z2","low"
"6","25","free","220","73","91","yellow-53","yellow","580","sampling-task","136","729367","0.0-5.0-0.120-0.120","14","5qg8t4z2","low"
"6","26","free","220","73","72","yellow-53","yellow","294","sampling-task","137","730519","0.0-5.0-0.121-0.121","14","5qg8t4z2","low"
"6","27","free","220","73","40","yellow-53","yellow","326","sampling-task","138","734239","0.0-5.0-0.122-0.122","14","5qg8t4z2","low"
"6","28","free","220","73","47","yellow-53","yellow","317","sampling-task","139","736295","0.0-5.0-0.123-0.123","14","5qg8t4z2","low"
"6","29","free","220","73","84","yellow-53","yellow","286","sampling-task","140","738183","0.0-5.0-0.124-0.124","14","5qg8t4z2","low"
"6","30","free","220","73","61","yellow-53","yellow","285","sampling-task","141","739799","0.0-5.0-0.125-0.125","14","5qg8t4z2","low"
"6","31","free","220","73","26","yellow-53","yellow","237","sampling-task","142","742327","0.0-5.0-0.126-0.126","14","5qg8t4z2","low"
"6","32","free","220","73","93","yellow-53","yellow","270","sampling-task","143","744407","0.0-5.0-0.127-0.127","14","5qg8t4z2","low"
"6","33","free","220","73","75","yellow-53","yellow","357","sampling-task","144","746839","0.0-5.0-0.128-0.128","14","5qg8t4z2","low"
"6","34","free","220","73","96","yellow-53","yellow","262","sampling-task","145","748391","0.0-5.0-0.129-0.129","14","5qg8t4z2","low"
"6","35","free","220","73","70","yellow-53","yellow","277","sampling-task","146","749599","0.0-5.0-0.130-0.130","14","5qg8t4z2","low"
"6","36","free","220","73","96","yellow-53","yellow","1917","sampling-task","147","753831","0.0-5.0-0.131-0.131","14","5qg8t4z2","low"
"6","37","free","220","73","67","yellow-53","yellow","1389","sampling-task","148","757183","0.0-5.0-0.132-0.132","14","5qg8t4z2","low"
"6","38","free","220","73","50","yellow-53","yellow","246","sampling-task","149","758447","0.0-5.0-0.133-0.133","14","5qg8t4z2","low"
"6","39","free","220","73","111","yellow-53","yellow","238","sampling-task","150","759943","0.0-5.0-0.134-0.134","14","5qg8t4z2","low"
"6","40","free","220","73","65","yellow-53","yellow","246","sampling-task","151","764540","0.0-5.0-0.135-0.135","14","5qg8t4z2","low"
"6","41","free","220","73","55","yellow-53","yellow","309","sampling-task","152","765700","0.0-5.0-0.136-0.136","14","5qg8t4z2","low"
"6","42","free","220","73","63","yellow-53","yellow","246","sampling-task","153","766788","0.0-5.0-0.137-0.137","14","5qg8t4z2","low"
"6","43","free","220","73","70","yellow-53","yellow","238","sampling-task","154","769212","0.0-5.0-0.138-0.138","14","5qg8t4z2","low"
"6","44","free","220","73","84","yellow-53","yellow","270","sampling-task","155","771356","0.0-5.0-0.139-0.139","14","5qg8t4z2","low"
"6","45","free","220","73","77","yellow-53","yellow","246","sampling-task","156","776532","0.0-5.0-0.140-0.140","14","5qg8t4z2","low"
"6","46","free","220","73","71","yellow-53","yellow","262","sampling-task","157","777900","0.0-5.0-0.141-0.141","14","5qg8t4z2","low"
"6","47","free","220","73","62","yellow-53","yellow","238","sampling-task","158","779004","0.0-5.0-0.142-0.142","14","5qg8t4z2","low"
"6","48","free","220","73","64","yellow-53","yellow","222","sampling-task","159","780268","0.0-5.0-0.143-0.143","14","5qg8t4z2","low"
"6","49","free","220","73","68","yellow-53","yellow","230","sampling-task","160","781316","0.0-5.0-0.144-0.144","14","5qg8t4z2","low"
"6","50","free","220","73","86","yellow-53","yellow","334","sampling-task","161","783860","0.0-5.0-0.145-0.145","14","5qg8t4z2","low"
"6","51","free","220","73","90","yellow-53","yellow","286","sampling-task","162","785548","0.0-5.0-0.146-0.146","14","5qg8t4z2","low"
"6","52","free","220","73","64","yellow-53","yellow","294","sampling-task","163","787956","0.0-5.0-0.147-0.147","14","5qg8t4z2","low"
"6","53","free","220","73","62","yellow-53","yellow","238","sampling-task","164","789716","0.0-5.0-0.148-0.148","14","5qg8t4z2","low"
"6","54","free","220","73","87","yellow-53","yellow","286","sampling-task","165","793461","0.0-5.0-0.149-0.149","14","5qg8t4z2","low"
"6","55","free","220","73","58","yellow-53","yellow","229","sampling-task","166","795956","0.0-5.0-0.150-0.150","14","5qg8t4z2","low"
