"round_number","sample_number","sampling_type","nSamples","mean","feedback","stimulus","stimulus_colour","rt","trial_type","trial_index","time_elapsed","internal_node_id","participant","randomID","condition"
"1","1","fixed","10","15","40","green-111","green","13569","sampling-task","6","372606","0.0-5.0-0.0-0.0","7","86he32pd","high"
"1","2","fixed","10","15","-28","green-126","green","1069","sampling-task","7","375469","0.0-5.0-0.1-0.1","7","86he32pd","high"
"1","3","fixed","10","15","-7","green-95","green","2046","sampling-task","8","380168","0.0-5.0-0.2-0.2","7","86he32pd","high"
"1","4","fixed","10","15","-5","green-17","green","1090","sampling-task","9","382629","0.0-5.0-0.3-0.3","7","86he32pd","high"
"1","5","fixed","10","15","18","green-212","green","1110","sampling-task","10","386157","0.0-5.0-0.4-0.4","7","86he32pd","high"
"1","6","fixed","10","15","33","green-61","green","1374","sampling-task","11","389893","0.0-5.0-0.5-0.5","7","86he32pd","high"
"1","7","fixed","10","15","21","green-119","green","1150","sampling-task","12","392349","0.0-5.0-0.6-0.6","7","86he32pd","high"
"1","8","fixed","10","15","-8","green-142","green","910","sampling-task","13","394661","0.0-5.0-0.7-0.7","7","86he32pd","high"
"1","9","fixed","10","15","13","green-121","green","926","sampling-task","14","397381","0.0-5.0-0.8-0.8","7","86he32pd","high"
"1","10","fixed","10","15","15","green-22","green","982","sampling-task","15","400237","0.0-5.0-0.9-0.9","7","86he32pd","high"
"2","1","free","220","118","141","blue-180","blue","3132","sampling-task","18","449156","0.0-5.0-0.10-0.10","7","86he32pd","high"
"2","2","free","220","118","105","blue-178","blue","878","sampling-task","19","451628","0.0-5.0-0.11-0.11","7","86he32pd","high"
"2","3","free","220","118","108","blue-130","blue","750","sampling-task","20","453924","0.0-5.0-0.12-0.12","7","86he32pd","high"
"2","4","free","220","118","142","blue-133","blue","918","sampling-task","21","456156","0.0-5.0-0.13-0.13","7","86he32pd","high"
"2","5","free","220","118","87","blue-177","blue","654","sampling-task","22","457988","0.0-5.0-0.14-0.14","7","86he32pd","high"
"2","6","free","220","118","116","blue-60","blue","750","sampling-task","23","459964","0.0-5.0-0.15-0.15","7","86he32pd","high"
"2","7","free","220","118","119","blue-41","blue","1190","sampling-task","24","462916","0.0-5.0-0.16-0.16","7","86he32pd","high"
"2","8","free","220","118","110","blue-91","blue","630","sampling-task","25","465508","0.0-5.0-0.17-0.17","7","86he32pd","high"
"2","9","free","220","118","123","blue-124","blue","587","sampling-task","26","467316","0.0-5.0-0.18-0.18","7","86he32pd","high"
"2","10","free","220","118","145","blue-9","blue","702","sampling-task","27","471324","0.0-5.0-0.19-0.19","7","86he32pd","high"
"2","11","free","220","118","108","blue-198","blue","550","sampling-task","28","473004","0.0-5.0-0.20-0.20","7","86he32pd","high"
"2","12","free","220","118","125","blue-148","blue","606","sampling-task","29","474549","0.0-5.0-0.21-0.21","7","86he32pd","high"
"2","13","free","220","118","120","blue-89","blue","845","sampling-task","30","476732","0.0-5.0-0.22-0.22","7","86he32pd","high"
"2","14","free","220","118","70","blue-99","blue","750","sampling-task","31","478492","0.0-5.0-0.23-0.23","7","86he32pd","high"
"2","15","free","220","118","104","blue-203","blue","630","sampling-task","32","480564","0.0-5.0-0.24-0.24","7","86he32pd","high"
"2","16","free","220","118","112","blue-113","blue","662","sampling-task","33","482292","0.0-5.0-0.25-0.25","7","86he32pd","high"
"2","17","free","220","118","108","blue-210","blue","670","sampling-task","34","484300","0.0-5.0-0.26-0.26","7","86he32pd","high"
"2","18","free","220","118","107","blue-53","blue","678","sampling-task","35","486044","0.0-5.0-0.27-0.27","7","86he32pd","high"
"2","19","free","220","118","101","blue-47","blue","710","sampling-task","36","487924","0.0-5.0-0.28-0.28","7","86he32pd","high"
"2","20","free","220","118","156","blue-164","blue","966","sampling-task","37","492724","0.0-5.0-0.29-0.29","7","86he32pd","high"
"2","21","free","220","118","134","blue-4","blue","606","sampling-task","38","494572","0.0-5.0-0.30-0.30","7","86he32pd","high"
"2","22","free","220","118","130","blue-192","blue","558","sampling-task","39","496252","0.0-5.0-0.31-0.31","7","86he32pd","high"
"2","23","free","220","118","141","blue-44","blue","582","sampling-task","40","497876","0.0-5.0-0.32-0.32","7","86he32pd","high"
"2","24","free","220","118","120","blue-130","blue","566","sampling-task","41","499340","0.0-5.0-0.33-0.33","7","86he32pd","high"
"2","25","free","220","118","93","blue-206","blue","582","sampling-task","42","500908","0.0-5.0-0.34-0.34","7","86he32pd","high"
"2","26","free","220","118","146","blue-145","blue","494","sampling-task","43","502676","0.0-5.0-0.35-0.35","7","86he32pd","high"
"2","27","free","220","118","121","blue-80","blue","526","sampling-task","44","504524","0.0-5.0-0.36-0.36","7","86he32pd","high"
"2","28","free","220","118","70","blue-44","blue","574","sampling-task","45","506012","0.0-5.0-0.37-0.37","7","86he32pd","high"
"2","29","free","220","118","126","blue-119","blue","748","sampling-task","46","507796","0.0-5.0-0.38-0.38","7","86he32pd","high"
"2","30","free","220","118","123","blue-149","blue","677","sampling-task","47","509491","0.0-5.0-0.39-0.39","7","86he32pd","high"
"2","31","free","220","118","155","blue-219","blue","717","sampling-task","48","511555","0.0-5.0-0.40-0.40","7","86he32pd","high"
"2","32","free","220","118","94","blue-214","blue","598","sampling-task","49","513299","0.0-5.0-0.41-0.41","7","86he32pd","high"
"2","33","free","220","118","97","blue-5","blue","582","sampling-task","50","515011","0.0-5.0-0.42-0.42","7","86he32pd","high"
"2","34","free","220","118","142","blue-158","blue","550","sampling-task","51","517131","0.0-5.0-0.43-0.43","7","86he32pd","high"
"2","35","free","220","118","124","blue-73","blue","518","sampling-task","52","518955","0.0-5.0-0.44-0.44","7","86he32pd","high"
"2","36","free","220","118","111","blue-157","blue","542","sampling-task","53","520451","0.0-5.0-0.45-0.45","7","86he32pd","high"
"2","37","free","220","118","115","blue-135","blue","542","sampling-task","54","522051","0.0-5.0-0.46-0.46","7","86he32pd","high"
"2","38","free","220","118","114","blue-108","blue","486","sampling-task","55","525035","0.0-5.0-0.47-0.47","7","86he32pd","high"
"2","39","free","220","118","100","blue-57","blue","710","sampling-task","56","527003","0.0-5.0-0.48-0.48","7","86he32pd","high"
"2","40","free","220","118","126","blue-115","blue","574","sampling-task","57","528587","0.0-5.0-0.49-0.49","7","86he32pd","high"
"2","41","free","220","118","128","blue-139","blue","478","sampling-task","58","530043","0.0-5.0-0.50-0.50","7","86he32pd","high"
"2","42","free","220","118","99","blue-193","blue","478","sampling-task","59","531811","0.0-5.0-0.51-0.51","7","86he32pd","high"
"2","43","free","220","118","123","blue-32","blue","518","sampling-task","60","533499","0.0-5.0-0.52-0.52","7","86he32pd","high"
"2","44","free","220","118","110","blue-193","blue","486","sampling-task","61","536795","0.0-5.0-0.53-0.53","7","86he32pd","high"
"2","45","free","220","118","117","blue-93","blue","526","sampling-task","62","538259","0.0-5.0-0.54-0.54","7","86he32pd","high"
"2","46","free","220","118","117","blue-193","blue","493","sampling-task","63","539827","0.0-5.0-0.55-0.55","7","86he32pd","high"
"2","47","free","220","118","124","blue-20","blue","590","sampling-task","64","541435","0.0-5.0-0.56-0.56","7","86he32pd","high"
"2","48","free","220","118","112","blue-63","blue","758","sampling-task","65","543210","0.0-5.0-0.57-0.57","7","86he32pd","high"
"2","49","free","220","118","77","blue-172","blue","510","sampling-task","66","544691","0.0-5.0-0.58-0.58","7","86he32pd","high"
"2","50","free","220","118","103","blue-182","blue","534","sampling-task","67","546139","0.0-5.0-0.59-0.59","7","86he32pd","high"
"2","51","free","220","118","136","blue-54","blue","486","sampling-task","68","547699","0.0-5.0-0.60-0.60","7","86he32pd","high"
"2","52","free","220","118","133","blue-181","blue","462","sampling-task","69","548994","0.0-5.0-0.61-0.61","7","86he32pd","high"
"2","53","free","220","118","130","blue-74","blue","654","sampling-task","70","550547","0.0-5.0-0.62-0.62","7","86he32pd","high"
"2","54","free","220","118","114","blue-211","blue","1254","sampling-task","71","553034","0.0-5.0-0.63-0.63","7","86he32pd","high"
"3","1","fixed","20","76","72","red-190","red","4068","sampling-task","74","582562","0.0-5.0-0.64-0.64","7","86he32pd","high"
"3","2","fixed","20","76","64","red-128","red","726","sampling-task","75","584922","0.0-5.0-0.65-0.65","7","86he32pd","high"
"3","3","fixed","20","76","72","red-64","red","598","sampling-task","76","587234","0.0-5.0-0.66-0.66","7","86he32pd","high"
"3","4","fixed","20","76","62","red-108","red","581","sampling-task","77","589178","0.0-5.0-0.67-0.67","7","86he32pd","high"
"3","5","fixed","20","76","46","red-101","red","550","sampling-task","78","590978","0.0-5.0-0.68-0.68","7","86he32pd","high"
"3","6","fixed","20","76","102","red-5","red","582","sampling-task","79","595098","0.0-5.0-0.69-0.69","7","86he32pd","high"
"3","7","fixed","20","76","85","red-212","red","654","sampling-task","80","596770","0.0-5.0-0.70-0.70","7","86he32pd","high"
"3","8","fixed","20","76","34","red-19","red","494","sampling-task","81","598274","0.0-5.0-0.71-0.71","7","86he32pd","high"
"3","9","fixed","20","76","64","red-50","red","718","sampling-task","82","600386","0.0-5.0-0.72-0.72","7","86he32pd","high"
"3","10","fixed","20","76","78","red-42","red","702","sampling-task","83","602138","0.0-5.0-0.73-0.73","7","86he32pd","high"
"3","11","fixed","20","76","105","red-185","red","566","sampling-task","84","604554","0.0-5.0-0.74-0.74","7","86he32pd","high"
"3","12","fixed","20","76","22","red-75","red","782","sampling-task","85","606450","0.0-5.0-0.75-0.75","7","86he32pd","high"
"3","13","fixed","20","76","91","red-144","red","606","sampling-task","86","608922","0.0-5.0-0.76-0.76","7","86he32pd","high"
"3","14","fixed","20","76","94","red-131","red","526","sampling-task","87","610610","0.0-5.0-0.77-0.77","7","86he32pd","high"
"3","15","fixed","20","76","88","red-75","red","678","sampling-task","88","612530","0.0-5.0-0.78-0.78","7","86he32pd","high"
"3","16","fixed","20","76","78","red-46","red","581","sampling-task","89","614410","0.0-5.0-0.79-0.79","7","86he32pd","high"
"3","17","fixed","20","76","47","red-154","red","566","sampling-task","90","615962","0.0-5.0-0.80-0.80","7","86he32pd","high"
"3","18","fixed","20","76","84","red-62","red","806","sampling-task","91","618082","0.0-5.0-0.81-0.81","7","86he32pd","high"
"3","19","fixed","20","76","68","red-11","red","733","sampling-task","92","619938","0.0-5.0-0.82-0.82","7","86he32pd","high"
"3","20","fixed","20","76","75","red-51","red","550","sampling-task","93","621554","0.0-5.0-0.83-0.83","7","86he32pd","high"
"4","1","free","220","30","30","yellow-89","yellow","2156","sampling-task","96","645665","0.0-5.0-0.84-0.84","7","86he32pd","high"
"4","2","free","220","30","15","yellow-33","yellow","573","sampling-task","97","647393","0.0-5.0-0.85-0.85","7","86he32pd","high"
"4","3","free","220","30","46","yellow-166","yellow","517","sampling-task","98","648849","0.0-5.0-0.86-0.86","7","86he32pd","high"
"4","4","free","220","30","34","yellow-150","yellow","502","sampling-task","99","650217","0.0-5.0-0.87-0.87","7","86he32pd","high"
"4","5","free","220","30","59","yellow-98","yellow","445","sampling-task","100","653529","0.0-5.0-0.88-0.88","7","86he32pd","high"
"4","6","free","220","30","36","yellow-136","yellow","558","sampling-task","101","655025","0.0-5.0-0.89-0.89","7","86he32pd","high"
"4","7","free","220","30","41","yellow-103","yellow","454","sampling-task","102","656433","0.0-5.0-0.90-0.90","7","86he32pd","high"
"4","8","free","220","30","46","yellow-77","yellow","478","sampling-task","103","657889","0.0-5.0-0.91-0.91","7","86he32pd","high"
"4","9","free","220","30","46","yellow-173","yellow","542","sampling-task","104","659345","0.0-5.0-0.92-0.92","7","86he32pd","high"
"4","10","free","220","30","48","yellow-49","yellow","502","sampling-task","105","660849","0.0-5.0-0.93-0.93","7","86he32pd","high"
"4","11","free","220","30","37","yellow-15","yellow","542","sampling-task","106","662617","0.0-5.0-0.94-0.94","7","86he32pd","high"
"4","12","free","220","30","39","yellow-72","yellow","437","sampling-task","107","664089","0.0-5.0-0.95-0.95","7","86he32pd","high"
"4","13","free","220","30","29","yellow-55","yellow","518","sampling-task","108","666521","0.0-5.0-0.96-0.96","7","86he32pd","high"
"5","1","fixed","5","98","142","orange-93","orange","1909","sampling-task","111","688768","0.0-5.0-0.97-0.97","7","86he32pd","high"
"5","2","fixed","5","98","116","orange-159","orange","670","sampling-task","112","691072","0.0-5.0-0.98-0.98","7","86he32pd","high"
"5","3","fixed","5","98","98","orange-56","orange","534","sampling-task","113","693048","0.0-5.0-0.99-0.99","7","86he32pd","high"
"5","4","fixed","5","98","110","orange-133","orange","757","sampling-task","114","694704","0.0-5.0-0.100-0.100","7","86he32pd","high"
"5","5","fixed","5","98","86","orange-50","orange","534","sampling-task","115","696432","0.0-5.0-0.101-0.101","7","86he32pd","high"
"6","1","free","220","55","67","purple-200","purple","2189","sampling-task","118","724192","0.0-5.0-0.102-0.102","7","86he32pd","high"
"6","2","free","220","55","47","purple-19","purple","518","sampling-task","119","725960","0.0-5.0-0.103-0.103","7","86he32pd","high"
"6","3","free","220","55","31","purple-184","purple","470","sampling-task","120","727368","0.0-5.0-0.104-0.104","7","86he32pd","high"
"6","4","free","220","55","37","purple-149","purple","566","sampling-task","121","728848","0.0-5.0-0.105-0.105","7","86he32pd","high"
"6","5","free","220","55","24","purple-35","purple","469","sampling-task","122","730248","0.0-5.0-0.106-0.106","7","86he32pd","high"
"6","6","free","220","55","48","purple-42","purple","437","sampling-task","123","731648","0.0-5.0-0.107-0.107","7","86he32pd","high"
"6","7","free","220","55","58","purple-146","purple","446","sampling-task","124","733024","0.0-5.0-0.108-0.108","7","86he32pd","high"
"6","8","free","220","55","16","purple-158","purple","429","sampling-task","125","734376","0.0-5.0-0.109-0.109","7","86he32pd","high"
"6","9","free","220","55","71","purple-214","purple","429","sampling-task","126","735712","0.0-5.0-0.110-0.110","7","86he32pd","high"
"6","10","free","220","55","64","purple-204","purple","429","sampling-task","127","737448","0.0-5.0-0.111-0.111","7","86he32pd","high"
"6","11","free","220","55","44","purple-169","purple","381","sampling-task","128","739064","0.0-5.0-0.112-0.112","7","86he32pd","high"
"6","12","free","220","55","58","purple-64","purple","349","sampling-task","129","740376","0.0-5.0-0.113-0.113","7","86he32pd","high"
"6","13","free","220","55","72","purple-45","purple","398","sampling-task","130","741768","0.0-5.0-0.114-0.114","7","86he32pd","high"
"6","14","free","220","55","57","purple-144","purple","388","sampling-task","131","743056","0.0-5.0-0.115-0.115","7","86he32pd","high"
"6","15","free","220","55","74","purple-186","purple","389","sampling-task","132","744344","0.0-5.0-0.116-0.116","7","86he32pd","high"
"6","16","free","220","55","56","purple-186","purple","454","sampling-task","133","745776","0.0-5.0-0.117-0.117","7","86he32pd","high"
"6","17","free","220","55","68","purple-77","purple","406","sampling-task","134","747048","0.0-5.0-0.118-0.118","7","86he32pd","high"
"6","18","free","220","55","53","purple-173","purple","406","sampling-task","135","748495","0.0-5.0-0.119-0.119","7","86he32pd","high"
"6","19","free","220","55","60","purple-42","purple","494","sampling-task","136","749856","0.0-5.0-0.120-0.120","7","86he32pd","high"
"6","20","free","220","55","47","purple-158","purple","445","sampling-task","137","751256","0.0-5.0-0.121-0.121","7","86he32pd","high"
"6","21","free","220","55","100","purple-58","purple","1158","sampling-task","138","754111","0.0-5.0-0.122-0.122","7","86he32pd","high"
