"round_number","sample_number","sampling_type","nSamples","mean","feedback","stimulus","stimulus_colour","rt","trial_type","trial_index","time_elapsed","internal_node_id","participant","randomID","condition"
"1","1","fixed","5","19","15","yellow-100","yellow","4741","sampling-task","6","383575","0.0-5.0-0.0-0.0","112","0ohxx9e3","low"
"1","2","fixed","5","19","20","yellow-100","yellow","1029","sampling-task","7","390166","0.0-5.0-0.1-0.1","112","0ohxx9e3","low"
"1","3","fixed","5","19","24","yellow-100","yellow","742","sampling-task","8","394430","0.0-5.0-0.2-0.2","112","0ohxx9e3","low"
"1","4","fixed","5","19","-7","yellow-100","yellow","1062","sampling-task","9","400927","0.0-5.0-0.3-0.3","112","0ohxx9e3","low"
"1","5","fixed","5","19","40","yellow-100","yellow","1566","sampling-task","10","414711","0.0-5.0-0.4-0.4","112","0ohxx9e3","low"
"2","1","free","220","116","134","green-23","green","3740","sampling-task","13","505035","0.0-5.0-0.5-0.5","112","0ohxx9e3","low"
"2","2","free","220","116","117","green-23","green","646","sampling-task","14","507730","0.0-5.0-0.6-0.6","112","0ohxx9e3","low"
"2","3","free","220","116","121","green-23","green","798","sampling-task","15","512131","0.0-5.0-0.7-0.7","112","0ohxx9e3","low"
"2","4","free","220","116","92","green-23","green","582","sampling-task","16","514218","0.0-5.0-0.8-0.8","112","0ohxx9e3","low"
"2","5","free","220","116","99","green-23","green","510","sampling-task","17","516243","0.0-5.0-0.9-0.9","112","0ohxx9e3","low"
"2","6","free","220","116","148","green-23","green","470","sampling-task","18","518051","0.0-5.0-0.10-0.10","112","0ohxx9e3","low"
"2","7","free","220","116","103","green-23","green","534","sampling-task","19","521890","0.0-5.0-0.11-0.11","112","0ohxx9e3","low"
"2","8","free","220","116","114","green-23","green","518","sampling-task","20","523723","0.0-5.0-0.12-0.12","112","0ohxx9e3","low"
"2","9","free","220","116","105","green-23","green","446","sampling-task","21","525179","0.0-5.0-0.13-0.13","112","0ohxx9e3","low"
"2","10","free","220","116","148","green-23","green","446","sampling-task","22","526579","0.0-5.0-0.14-0.14","112","0ohxx9e3","low"
"2","11","free","220","116","130","green-23","green","478","sampling-task","23","528075","0.0-5.0-0.15-0.15","112","0ohxx9e3","low"
"2","12","free","220","116","151","green-23","green","406","sampling-task","24","529531","0.0-5.0-0.16-0.16","112","0ohxx9e3","low"
"2","13","free","220","116","96","green-23","green","438","sampling-task","25","530898","0.0-5.0-0.17-0.17","112","0ohxx9e3","low"
"2","14","free","220","116","96","green-23","green","357","sampling-task","26","532179","0.0-5.0-0.18-0.18","112","0ohxx9e3","low"
"2","15","free","220","116","160","green-23","green","414","sampling-task","27","533688","0.0-5.0-0.19-0.19","112","0ohxx9e3","low"
"2","16","free","220","116","130","green-23","green","430","sampling-task","28","535048","0.0-5.0-0.20-0.20","112","0ohxx9e3","low"
"2","17","free","220","116","122","green-23","green","398","sampling-task","29","536616","0.0-5.0-0.21-0.21","112","0ohxx9e3","low"
"2","18","free","220","116","100","green-23","green","486","sampling-task","30","538336","0.0-5.0-0.22-0.22","112","0ohxx9e3","low"
"2","19","free","220","116","86","green-23","green","422","sampling-task","31","540440","0.0-5.0-0.23-0.23","112","0ohxx9e3","low"
"3","1","fixed","10","39","54","red-150","red","4164","sampling-task","34","568640","0.0-5.0-0.24-0.24","112","0ohxx9e3","low"
"3","2","fixed","10","39","7","red-150","red","501","sampling-task","35","572607","0.0-5.0-0.25-0.25","112","0ohxx9e3","low"
"3","3","fixed","10","39","7","red-150","red","422","sampling-task","36","575088","0.0-5.0-0.26-0.26","112","0ohxx9e3","low"
"3","4","fixed","10","39","7","red-150","red","437","sampling-task","37","577023","0.0-5.0-0.27-0.27","112","0ohxx9e3","low"
"3","5","fixed","10","39","34","red-150","red","406","sampling-task","38","581007","0.0-5.0-0.28-0.28","112","0ohxx9e3","low"
"3","6","fixed","10","39","30","red-150","red","558","sampling-task","39","584200","0.0-5.0-0.29-0.29","112","0ohxx9e3","low"
"3","7","fixed","10","39","14","red-150","red","518","sampling-task","40","586007","0.0-5.0-0.30-0.30","112","0ohxx9e3","low"
"3","8","fixed","10","39","32","red-150","red","606","sampling-task","41","587791","0.0-5.0-0.31-0.31","112","0ohxx9e3","low"
"3","9","fixed","10","39","39","red-150","red","526","sampling-task","42","590183","0.0-5.0-0.32-0.32","112","0ohxx9e3","low"
"3","10","fixed","10","39","58","red-150","red","582","sampling-task","43","593256","0.0-5.0-0.33-0.33","112","0ohxx9e3","low"
"4","1","free","220","96","83","purple-133","purple","3252","sampling-task","46","618069","0.0-5.0-0.34-0.34","112","0ohxx9e3","low"
"4","2","free","220","96","74","purple-133","purple","430","sampling-task","47","619429","0.0-5.0-0.35-0.35","112","0ohxx9e3","low"
"4","3","free","220","96","89","purple-133","purple","341","sampling-task","48","620637","0.0-5.0-0.36-0.36","112","0ohxx9e3","low"
"4","4","free","220","96","75","purple-133","purple","310","sampling-task","49","621765","0.0-5.0-0.37-0.37","112","0ohxx9e3","low"
"4","5","free","220","96","85","purple-133","purple","286","sampling-task","50","622965","0.0-5.0-0.38-0.38","112","0ohxx9e3","low"
"4","6","free","220","96","87","purple-133","purple","478","sampling-task","51","624349","0.0-5.0-0.39-0.39","112","0ohxx9e3","low"
"4","7","free","220","96","69","purple-133","purple","310","sampling-task","52","625509","0.0-5.0-0.40-0.40","112","0ohxx9e3","low"
"4","8","free","220","96","70","purple-133","purple","302","sampling-task","53","626685","0.0-5.0-0.41-0.41","112","0ohxx9e3","low"
"4","9","free","220","96","103","purple-133","purple","294","sampling-task","54","627829","0.0-5.0-0.42-0.42","112","0ohxx9e3","low"
"4","10","free","220","96","103","purple-133","purple","302","sampling-task","55","628933","0.0-5.0-0.43-0.43","112","0ohxx9e3","low"
"4","11","free","220","96","97","purple-133","purple","294","sampling-task","56","630045","0.0-5.0-0.44-0.44","112","0ohxx9e3","low"
"4","12","free","220","96","119","purple-133","purple","334","sampling-task","57","631334","0.0-5.0-0.45-0.45","112","0ohxx9e3","low"
"4","13","free","220","96","96","purple-133","purple","358","sampling-task","58","632917","0.0-5.0-0.46-0.46","112","0ohxx9e3","low"
"4","14","free","220","96","71","purple-133","purple","342","sampling-task","59","634397","0.0-5.0-0.47-0.47","112","0ohxx9e3","low"
"4","15","free","220","96","110","purple-133","purple","302","sampling-task","60","635605","0.0-5.0-0.48-0.48","112","0ohxx9e3","low"
"4","16","free","220","96","133","purple-133","purple","374","sampling-task","61","636909","0.0-5.0-0.49-0.49","112","0ohxx9e3","low"
"4","17","free","220","96","110","purple-133","purple","310","sampling-task","62","638229","0.0-5.0-0.50-0.50","112","0ohxx9e3","low"
"4","18","free","220","96","65","purple-133","purple","286","sampling-task","63","640021","0.0-5.0-0.51-0.51","112","0ohxx9e3","low"
"4","19","free","220","96","103","purple-133","purple","294","sampling-task","64","641869","0.0-5.0-0.52-0.52","112","0ohxx9e3","low"
"5","1","fixed","20","71","87","orange-28","orange","1772","sampling-task","67","668546","0.0-5.0-0.53-0.53","112","0ohxx9e3","low"
"5","2","fixed","20","71","67","orange-28","orange","478","sampling-task","68","669970","0.0-5.0-0.54-0.54","112","0ohxx9e3","low"
"5","3","fixed","20","71","82","orange-28","orange","446","sampling-task","69","672762","0.0-5.0-0.55-0.55","112","0ohxx9e3","low"
"5","4","fixed","20","71","92","orange-28","orange","518","sampling-task","70","674587","0.0-5.0-0.56-0.56","112","0ohxx9e3","low"
"5","5","fixed","20","71","54","orange-28","orange","870","sampling-task","71","676610","0.0-5.0-0.57-0.57","112","0ohxx9e3","low"
"5","6","fixed","20","71","75","orange-28","orange","4302","sampling-task","72","682522","0.0-5.0-0.58-0.58","112","0ohxx9e3","low"
"5","7","fixed","20","71","81","orange-28","orange","1862","sampling-task","73","687962","0.0-5.0-0.59-0.59","112","0ohxx9e3","low"
"5","8","fixed","20","71","59","orange-28","orange","3022","sampling-task","74","692083","0.0-5.0-0.60-0.60","112","0ohxx9e3","low"
"5","9","fixed","20","71","98","orange-28","orange","2046","sampling-task","75","695075","0.0-5.0-0.61-0.61","112","0ohxx9e3","low"
"5","10","fixed","20","71","48","orange-28","orange","1333","sampling-task","76","697450","0.0-5.0-0.62-0.62","112","0ohxx9e3","low"
"5","11","fixed","20","71","72","orange-28","orange","2934","sampling-task","77","701434","0.0-5.0-0.63-0.63","112","0ohxx9e3","low"
"5","12","fixed","20","71","81","orange-28","orange","1118","sampling-task","78","703643","0.0-5.0-0.64-0.64","112","0ohxx9e3","low"
"5","13","fixed","20","71","46","orange-28","orange","1030","sampling-task","79","706562","0.0-5.0-0.65-0.65","112","0ohxx9e3","low"
"5","14","fixed","20","71","122","orange-28","orange","382","sampling-task","80","707826","0.0-5.0-0.66-0.66","112","0ohxx9e3","low"
"5","15","fixed","20","71","51","orange-28","orange","382","sampling-task","81","709107","0.0-5.0-0.67-0.67","112","0ohxx9e3","low"
"5","16","fixed","20","71","91","orange-28","orange","478","sampling-task","82","710546","0.0-5.0-0.68-0.68","112","0ohxx9e3","low"
"5","17","fixed","20","71","82","orange-28","orange","446","sampling-task","83","711955","0.0-5.0-0.69-0.69","112","0ohxx9e3","low"
"5","18","fixed","20","71","54","orange-28","orange","654","sampling-task","84","713491","0.0-5.0-0.70-0.70","112","0ohxx9e3","low"
"5","19","fixed","20","71","49","orange-28","orange","414","sampling-task","85","714730","0.0-5.0-0.71-0.71","112","0ohxx9e3","low"
"5","20","fixed","20","71","46","orange-28","orange","374","sampling-task","86","716002","0.0-5.0-0.72-0.72","112","0ohxx9e3","low"
"6","1","free","220","50","56","blue-74","blue","2981","sampling-task","89","743808","0.0-5.0-0.73-0.73","112","0ohxx9e3","low"
"6","2","free","220","50","4","blue-74","blue","325","sampling-task","90","745040","0.0-5.0-0.74-0.74","112","0ohxx9e3","low"
"6","3","free","220","50","68","blue-74","blue","381","sampling-task","91","746367","0.0-5.0-0.75-0.75","112","0ohxx9e3","low"
"6","4","free","220","50","65","blue-74","blue","358","sampling-task","92","747583","0.0-5.0-0.76-0.76","112","0ohxx9e3","low"
"6","5","free","220","50","63","blue-74","blue","310","sampling-task","93","748712","0.0-5.0-0.77-0.77","112","0ohxx9e3","low"
"6","6","free","220","50","6","blue-74","blue","318","sampling-task","94","749888","0.0-5.0-0.78-0.78","112","0ohxx9e3","low"
"6","7","free","220","50","1","blue-74","blue","293","sampling-task","95","751032","0.0-5.0-0.79-0.79","112","0ohxx9e3","low"
"6","8","free","220","50","66","blue-74","blue","294","sampling-task","96","752168","0.0-5.0-0.80-0.80","112","0ohxx9e3","low"
"6","9","free","220","50","45","blue-74","blue","318","sampling-task","97","753344","0.0-5.0-0.81-0.81","112","0ohxx9e3","low"
"6","10","free","220","50","64","blue-74","blue","390","sampling-task","98","754672","0.0-5.0-0.82-0.82","112","0ohxx9e3","low"
"6","11","free","220","50","38","blue-74","blue","310","sampling-task","99","755808","0.0-5.0-0.83-0.83","112","0ohxx9e3","low"
"6","12","free","220","50","19","blue-74","blue","278","sampling-task","100","757240","0.0-5.0-0.84-0.84","112","0ohxx9e3","low"
"6","13","free","220","50","42","blue-74","blue","269","sampling-task","101","758352","0.0-5.0-0.85-0.85","112","0ohxx9e3","low"
"6","14","free","220","50","70","blue-74","blue","278","sampling-task","102","759487","0.0-5.0-0.86-0.86","112","0ohxx9e3","low"
"6","15","free","220","50","64","blue-74","blue","309","sampling-task","103","760608","0.0-5.0-0.87-0.87","112","0ohxx9e3","low"
"6","16","free","220","50","65","blue-74","blue","358","sampling-task","104","761752","0.0-5.0-0.88-0.88","112","0ohxx9e3","low"
"6","17","free","220","50","74","blue-74","blue","254","sampling-task","105","762783","0.0-5.0-0.89-0.89","112","0ohxx9e3","low"
"6","18","free","220","50","67","blue-74","blue","278","sampling-task","106","764232","0.0-5.0-0.90-0.90","112","0ohxx9e3","low"
"6","19","free","220","50","57","blue-74","blue","413","sampling-task","107","765552","0.0-5.0-0.91-0.91","112","0ohxx9e3","low"
"6","20","free","220","50","21","blue-74","blue","309","sampling-task","108","767008","0.0-5.0-0.92-0.92","112","0ohxx9e3","low"
"6","21","free","220","50","75","blue-74","blue","405","sampling-task","109","768831","0.0-5.0-0.93-0.93","112","0ohxx9e3","low"
"6","22","free","220","50","56","blue-74","blue","341","sampling-task","110","770320","0.0-5.0-0.94-0.94","112","0ohxx9e3","low"
