"round_number","sample_number","sampling_type","nSamples","mean","feedback","stimulus","stimulus_colour","rt","trial_type","trial_index","time_elapsed","internal_node_id","participant","randomID","condition"
"1","1","fixed","5","11","15","yellow-13","yellow","21728","sampling-task","6","585464","0.0-5.0-0.0-0.0","61","ygmr0vtu","low"
"1","2","fixed","5","11","49","yellow-13","yellow","6462","sampling-task","7","604727","0.0-5.0-0.1-0.1","61","ygmr0vtu","low"
"1","3","fixed","5","11","4","yellow-13","yellow","1238","sampling-task","8","607607","0.0-5.0-0.2-0.2","61","ygmr0vtu","low"
"1","4","fixed","5","11","20","yellow-13","yellow","958","sampling-task","9","610055","0.0-5.0-0.3-0.3","61","ygmr0vtu","low"
"1","5","fixed","5","11","-11","yellow-13","yellow","918","sampling-task","10","612240","0.0-5.0-0.4-0.4","61","ygmr0vtu","low"
"2","1","free","220","99","104","purple-116","purple","6468","sampling-task","13","678765","0.0-5.0-0.5-0.5","61","ygmr0vtu","low"
"2","2","free","220","99","93","purple-116","purple","630","sampling-task","14","680637","0.0-5.0-0.6-0.6","61","ygmr0vtu","low"
"2","3","free","220","99","86","purple-116","purple","542","sampling-task","15","682261","0.0-5.0-0.7-0.7","61","ygmr0vtu","low"
"2","4","free","220","99","101","purple-116","purple","502","sampling-task","16","683877","0.0-5.0-0.8-0.8","61","ygmr0vtu","low"
"2","5","free","220","99","101","purple-116","purple","446","sampling-task","17","685269","0.0-5.0-0.9-0.9","61","ygmr0vtu","low"
"2","6","free","220","99","101","purple-116","purple","510","sampling-task","18","686677","0.0-5.0-0.10-0.10","61","ygmr0vtu","low"
"2","7","free","220","99","86","purple-116","purple","479","sampling-task","19","688117","0.0-5.0-0.11-0.11","61","ygmr0vtu","low"
"2","8","free","220","99","116","purple-116","purple","414","sampling-task","20","689405","0.0-5.0-0.12-0.12","61","ygmr0vtu","low"
"2","9","free","220","99","73","purple-116","purple","374","sampling-task","21","690613","0.0-5.0-0.13-0.13","61","ygmr0vtu","low"
"2","10","free","220","99","79","purple-116","purple","414","sampling-task","22","691861","0.0-5.0-0.14-0.14","61","ygmr0vtu","low"
"2","11","free","220","99","147","purple-116","purple","390","sampling-task","23","693093","0.0-5.0-0.15-0.15","61","ygmr0vtu","low"
"2","12","free","220","99","85","purple-116","purple","350","sampling-task","24","694269","0.0-5.0-0.16-0.16","61","ygmr0vtu","low"
"2","13","free","220","99","73","purple-116","purple","334","sampling-task","25","695469","0.0-5.0-0.17-0.17","61","ygmr0vtu","low"
"2","14","free","220","99","99","purple-116","purple","371","sampling-task","26","696818","0.0-5.0-0.18-0.18","61","ygmr0vtu","low"
"2","15","free","220","99","81","purple-116","purple","494","sampling-task","27","698674","0.0-5.0-0.19-0.19","61","ygmr0vtu","low"
"3","1","fixed","20","78","87","blue-79","blue","6813","sampling-task","30","744755","0.0-5.0-0.20-0.20","61","ygmr0vtu","low"
"3","2","fixed","20","78","126","blue-79","blue","534","sampling-task","31","746187","0.0-5.0-0.21-0.21","61","ygmr0vtu","low"
"3","3","fixed","20","78","98","blue-79","blue","470","sampling-task","32","747586","0.0-5.0-0.22-0.22","61","ygmr0vtu","low"
"3","4","fixed","20","78","82","blue-79","blue","486","sampling-task","33","749026","0.0-5.0-0.23-0.23","61","ygmr0vtu","low"
"3","5","fixed","20","78","52","blue-79","blue","502","sampling-task","34","750450","0.0-5.0-0.24-0.24","61","ygmr0vtu","low"
"3","6","fixed","20","78","33","blue-79","blue","486","sampling-task","35","751899","0.0-5.0-0.25-0.25","61","ygmr0vtu","low"
"3","7","fixed","20","78","84","blue-79","blue","462","sampling-task","36","753626","0.0-5.0-0.26-0.26","61","ygmr0vtu","low"
"3","8","fixed","20","78","51","blue-79","blue","478","sampling-task","37","755042","0.0-5.0-0.27-0.27","61","ygmr0vtu","low"
"3","9","fixed","20","78","49","blue-79","blue","438","sampling-task","38","756329","0.0-5.0-0.28-0.28","61","ygmr0vtu","low"
"3","10","fixed","20","78","96","blue-79","blue","582","sampling-task","39","757752","0.0-5.0-0.29-0.29","61","ygmr0vtu","low"
"3","11","fixed","20","78","88","blue-79","blue","430","sampling-task","40","759096","0.0-5.0-0.30-0.30","61","ygmr0vtu","low"
"3","12","fixed","20","78","72","blue-79","blue","454","sampling-task","41","760665","0.0-5.0-0.31-0.31","61","ygmr0vtu","low"
"3","13","fixed","20","78","91","blue-79","blue","566","sampling-task","42","763544","0.0-5.0-0.32-0.32","61","ygmr0vtu","low"
"3","14","fixed","20","78","111","blue-79","blue","438","sampling-task","43","764889","0.0-5.0-0.33-0.33","61","ygmr0vtu","low"
"3","15","fixed","20","78","55","blue-79","blue","446","sampling-task","44","766401","0.0-5.0-0.34-0.34","61","ygmr0vtu","low"
"3","16","fixed","20","78","92","blue-79","blue","414","sampling-task","45","767849","0.0-5.0-0.35-0.35","61","ygmr0vtu","low"
"3","17","fixed","20","78","43","blue-79","blue","454","sampling-task","46","769153","0.0-5.0-0.36-0.36","61","ygmr0vtu","low"
"3","18","fixed","20","78","89","blue-79","blue","478","sampling-task","47","770472","0.0-5.0-0.37-0.37","61","ygmr0vtu","low"
"3","19","fixed","20","78","72","blue-79","blue","629","sampling-task","48","772001","0.0-5.0-0.38-0.38","61","ygmr0vtu","low"
"3","20","fixed","20","78","78","blue-79","blue","518","sampling-task","49","773360","0.0-5.0-0.39-0.39","61","ygmr0vtu","low"
"4","1","free","220","114","88","orange-12","orange","4084","sampling-task","52","806848","0.0-5.0-0.40-0.40","61","ygmr0vtu","low"
"4","2","free","220","114","96","orange-12","orange","438","sampling-task","53","808329","0.0-5.0-0.41-0.41","61","ygmr0vtu","low"
"4","3","free","220","114","105","orange-12","orange","302","sampling-task","54","809648","0.0-5.0-0.42-0.42","61","ygmr0vtu","low"
"4","4","free","220","114","117","orange-12","orange","382","sampling-task","55","810929","0.0-5.0-0.43-0.43","61","ygmr0vtu","low"
"4","5","free","220","114","125","orange-12","orange","390","sampling-task","56","812185","0.0-5.0-0.44-0.44","61","ygmr0vtu","low"
"4","6","free","220","114","105","orange-12","orange","430","sampling-task","57","813432","0.0-5.0-0.45-0.45","61","ygmr0vtu","low"
"4","7","free","220","114","115","orange-12","orange","326","sampling-task","58","814729","0.0-5.0-0.46-0.46","61","ygmr0vtu","low"
"4","8","free","220","114","112","orange-12","orange","342","sampling-task","59","815942","0.0-5.0-0.47-0.47","61","ygmr0vtu","low"
"4","9","free","220","114","92","orange-12","orange","351","sampling-task","60","817222","0.0-5.0-0.48-0.48","61","ygmr0vtu","low"
"4","10","free","220","114","120","orange-12","orange","375","sampling-task","61","818438","0.0-5.0-0.49-0.49","61","ygmr0vtu","low"
"4","11","free","220","114","142","orange-12","orange","326","sampling-task","62","819894","0.0-5.0-0.50-0.50","61","ygmr0vtu","low"
"4","12","free","220","114","130","orange-12","orange","381","sampling-task","63","821150","0.0-5.0-0.51-0.51","61","ygmr0vtu","low"
"4","13","free","220","114","125","orange-12","orange","398","sampling-task","64","822366","0.0-5.0-0.52-0.52","61","ygmr0vtu","low"
"4","14","free","220","114","88","orange-12","orange","311","sampling-task","65","823470","0.0-5.0-0.53-0.53","61","ygmr0vtu","low"
"4","15","free","220","114","109","orange-12","orange","343","sampling-task","66","824822","0.0-5.0-0.54-0.54","61","ygmr0vtu","low"
"4","16","free","220","114","114","orange-12","orange","326","sampling-task","67","826582","0.0-5.0-0.55-0.55","61","ygmr0vtu","low"
"4","17","free","220","114","142","orange-12","orange","582","sampling-task","68","828030","0.0-5.0-0.56-0.56","61","ygmr0vtu","low"
"4","18","free","220","114","85","orange-12","orange","414","sampling-task","69","829398","0.0-5.0-0.57-0.57","61","ygmr0vtu","low"
"4","19","free","220","114","76","orange-12","orange","375","sampling-task","70","830630","0.0-5.0-0.58-0.58","61","ygmr0vtu","low"
"4","20","free","220","114","90","orange-12","orange","367","sampling-task","71","831950","0.0-5.0-0.59-0.59","61","ygmr0vtu","low"
"4","21","free","220","114","144","orange-12","orange","350","sampling-task","72","833166","0.0-5.0-0.60-0.60","61","ygmr0vtu","low"
"4","22","free","220","114","156","orange-12","orange","367","sampling-task","73","834830","0.0-5.0-0.61-0.61","61","ygmr0vtu","low"
"4","23","free","220","114","86","orange-12","orange","342","sampling-task","74","836390","0.0-5.0-0.62-0.62","61","ygmr0vtu","low"
"4","24","free","220","114","122","orange-12","orange","782","sampling-task","75","838278","0.0-5.0-0.63-0.63","61","ygmr0vtu","low"
"4","25","free","220","114","139","orange-12","orange","390","sampling-task","76","839454","0.0-5.0-0.64-0.64","61","ygmr0vtu","low"
"4","26","free","220","114","114","orange-12","orange","341","sampling-task","77","841326","0.0-5.0-0.65-0.65","61","ygmr0vtu","low"
"4","27","free","220","114","173","orange-12","orange","318","sampling-task","78","842598","0.0-5.0-0.66-0.66","61","ygmr0vtu","low"
"4","28","free","220","114","112","orange-12","orange","398","sampling-task","79","843838","0.0-5.0-0.67-0.67","61","ygmr0vtu","low"
"4","29","free","220","114","145","orange-12","orange","318","sampling-task","80","844998","0.0-5.0-0.68-0.68","61","ygmr0vtu","low"
"4","30","free","220","114","121","orange-12","orange","311","sampling-task","81","846190","0.0-5.0-0.69-0.69","61","ygmr0vtu","low"
"4","31","free","220","114","121","orange-12","orange","326","sampling-task","82","847422","0.0-5.0-0.70-0.70","61","ygmr0vtu","low"
"4","32","free","220","114","97","orange-12","orange","302","sampling-task","83","848678","0.0-5.0-0.71-0.71","61","ygmr0vtu","low"
"4","33","free","220","114","95","orange-12","orange","341","sampling-task","84","851142","0.0-5.0-0.72-0.72","61","ygmr0vtu","low"
"4","34","free","220","114","88","orange-12","orange","374","sampling-task","85","852726","0.0-5.0-0.73-0.73","61","ygmr0vtu","low"
"4","35","free","220","114","106","orange-12","orange","358","sampling-task","86","854206","0.0-5.0-0.74-0.74","61","ygmr0vtu","low"
"4","36","free","220","114","129","orange-12","orange","373","sampling-task","87","855926","0.0-5.0-0.75-0.75","61","ygmr0vtu","low"
"4","37","free","220","114","95","orange-12","orange","317","sampling-task","88","857262","0.0-5.0-0.76-0.76","61","ygmr0vtu","low"
"4","38","free","220","114","134","orange-12","orange","286","sampling-task","89","858902","0.0-5.0-0.77-0.77","61","ygmr0vtu","low"
"5","1","fixed","10","31","50","green-135","green","5812","sampling-task","92","897492","0.0-5.0-0.78-0.78","61","ygmr0vtu","low"
"5","2","fixed","10","31","6","green-135","green","414","sampling-task","93","898780","0.0-5.0-0.79-0.79","61","ygmr0vtu","low"
"5","3","fixed","10","31","35","green-135","green","494","sampling-task","94","900467","0.0-5.0-0.80-0.80","61","ygmr0vtu","low"
"5","4","fixed","10","31","3","green-135","green","422","sampling-task","95","901756","0.0-5.0-0.81-0.81","61","ygmr0vtu","low"
"5","5","fixed","10","31","21","green-135","green","374","sampling-task","96","903300","0.0-5.0-0.82-0.82","61","ygmr0vtu","low"
"5","6","fixed","10","31","-4","green-135","green","430","sampling-task","97","904956","0.0-5.0-0.83-0.83","61","ygmr0vtu","low"
"5","7","fixed","10","31","38","green-135","green","685","sampling-task","98","906892","0.0-5.0-0.84-0.84","61","ygmr0vtu","low"
"5","8","fixed","10","31","15","green-135","green","766","sampling-task","99","908604","0.0-5.0-0.85-0.85","61","ygmr0vtu","low"
"5","9","fixed","10","31","65","green-135","green","478","sampling-task","100","909931","0.0-5.0-0.86-0.86","61","ygmr0vtu","low"
"5","10","fixed","10","31","44","green-135","green","454","sampling-task","101","911404","0.0-5.0-0.87-0.87","61","ygmr0vtu","low"
"6","1","free","220","58","65","red-124","red","5300","sampling-task","104","942913","0.0-5.0-0.88-0.88","61","ygmr0vtu","low"
"6","2","free","220","58","42","red-124","red","309","sampling-task","105","944041","0.0-5.0-0.89-0.89","61","ygmr0vtu","low"
"6","3","free","220","58","66","red-124","red","382","sampling-task","106","945273","0.0-5.0-0.90-0.90","61","ygmr0vtu","low"
"6","4","free","220","58","54","red-124","red","317","sampling-task","107","946433","0.0-5.0-0.91-0.91","61","ygmr0vtu","low"
"6","5","free","220","58","62","red-124","red","318","sampling-task","108","947713","0.0-5.0-0.92-0.92","61","ygmr0vtu","low"
"6","6","free","220","58","23","red-124","red","333","sampling-task","109","948881","0.0-5.0-0.93-0.93","61","ygmr0vtu","low"
"6","7","free","220","58","35","red-124","red","358","sampling-task","110","950113","0.0-5.0-0.94-0.94","61","ygmr0vtu","low"
"6","8","free","220","58","68","red-124","red","333","sampling-task","111","951481","0.0-5.0-0.95-0.95","61","ygmr0vtu","low"
"6","9","free","220","58","53","red-124","red","293","sampling-task","112","952801","0.0-5.0-0.96-0.96","61","ygmr0vtu","low"
"6","10","free","220","58","48","red-124","red","293","sampling-task","113","953985","0.0-5.0-0.97-0.97","61","ygmr0vtu","low"
"6","11","free","220","58","34","red-124","red","293","sampling-task","114","955129","0.0-5.0-0.98-0.98","61","ygmr0vtu","low"
"6","12","free","220","58","35","red-124","red","301","sampling-task","115","956393","0.0-5.0-0.99-0.99","61","ygmr0vtu","low"
"6","13","free","220","58","53","red-124","red","325","sampling-task","116","957545","0.0-5.0-0.100-0.100","61","ygmr0vtu","low"
"6","14","free","220","58","69","red-124","red","293","sampling-task","117","958673","0.0-5.0-0.101-0.101","61","ygmr0vtu","low"
"6","15","free","220","58","81","red-124","red","253","sampling-task","118","960321","0.0-5.0-0.102-0.102","61","ygmr0vtu","low"
"6","16","free","220","58","64","red-124","red","325","sampling-task","119","961697","0.0-5.0-0.103-0.103","61","ygmr0vtu","low"
"6","17","free","220","58","38","red-124","red","317","sampling-task","120","962825","0.0-5.0-0.104-0.104","61","ygmr0vtu","low"
"6","18","free","220","58","25","red-124","red","349","sampling-task","121","964089","0.0-5.0-0.105-0.105","61","ygmr0vtu","low"
"6","19","free","220","58","85","red-124","red","325","sampling-task","122","965225","0.0-5.0-0.106-0.106","61","ygmr0vtu","low"
"6","20","free","220","58","98","red-124","red","341","sampling-task","123","966401","0.0-5.0-0.107-0.107","61","ygmr0vtu","low"
"6","21","free","220","58","43","red-124","red","293","sampling-task","124","967897","0.0-5.0-0.108-0.108","61","ygmr0vtu","low"
